{
  "hookInstance": "a172a2ce-38e7-4a21-a411-522cf481d5d1",
  "fhirServer": "http://localhost:8080/cqf-ruler-r4/fhir",
  "hook": "patient-view",
  "applyCql": true,
  "context": {
    "userId": "Practitioner/example",
    "patientId": "Patient/example-rec-10-no-screenings",
    "encounterId": "Encounter/example-rec-10-no-screenings-context"
  },
  "prefetch": {
    "item1": {
      "response": {
        "status": "200 OK"
      },
      "resource": {
        "resourceType": "Patient",
        "id": "example-rec-10-no-screenings",
        "gender": "female",
        "birthDate": "1982-01-07"
      }
    },
    "item2": {
      "response": {
        "status": "200 OK"
      },
      "resource": {
        "resourceType": "Bundle",
        "type": "searchset",
        "entry": [
          {
            "resource": {
              "resourceType": "MedicationRequest",
              "id": "example-rec-10-no-screenings-context",
              "status": "active",
              "intent": "order",
              "category": [
                {
                  "coding": [
                    {
                      "system": "http://terminology.hl7.org/CodeSystem/medicationrequest-category",
                      "code": "community"
                    }
                  ]
                }
              ],
              "medicationReference": {
                "reference": "Medication/12bd1f88-426f-4567-85fe-db9eae37f56b",
                "display": "72 HR Fentanyl 0.075 MG/HR Transdermal System"
              },
              "subject": {
                "reference": "Patient/example-rec-10-no-screenings"
              },
              "encounter": {
                "reference": "Encounter/example-rec-10-no-screenings-context"
              },
              "_authoredOn": {
                "extension": [
                  {
                    "url": "http://hl7.org/fhir/StructureDefinition/cqf-expression",
                    "valueExpression": {
                      "language": "text/cql",
                      "expression": "Today()"
                    }
                  }
                ]
              },
              "dosageInstruction": [
                {
                  "timing": {
                    "repeat": {
                      "frequency": 1,
                      "period": 12.0,
                      "periodUnit": "d"
                    }
                  },
                  "asNeededBoolean": false,
                  "doseAndRate": [
                    {
                      "doseQuantity": {
                        "value": 1.0,
                        "unit": "patch"
                      }
                    }
                  ]
                }
              ],
              "dispenseRequest": {
                "_validityPeriod": {
                  "extension": [
                    {
                      "url": "http://hl7.org/fhir/StructureDefinition/cqf-expression",
                      "valueExpression": {
                        "language": "text/cql",
                        "expression": "FHIR.Period { start: FHIR.dateTime { value: Today() }, end: FHIR.dateTime { value: Today() + 3 months } }"
                      }
                    }
                  ]
                },
                "numberOfRepeatsAllowed": 3,
                "expectedSupplyDuration": {
                  "value": 30.0,
                  "unit": "days",
                  "system": "http://unitsofmeasure.org",
                  "code": "d"
                }
              }
            }
          },
          {
            "resource": {
              "resourceType": "MedicationRequest",
              "id": "example-rec-10-no-screenings-prefetch",
              "status": "active",
              "intent": "order",
              "category": [
                {
                  "coding": [
                    {
                      "system": "http://terminology.hl7.org/CodeSystem/medicationrequest-category",
                      "code": "community"
                    }
                  ]
                }
              ],
              "medicationReference": {
                "reference": "Medication/371016cf-18eb-4311-bbc9-0ef2b923a8c9",
                "display": "12 HR Oxycodone Hydrochloride 10 MG Extended Release Oral Tablet"
              },
              "subject": {
                "reference": "Patient/example-rec-10-no-screenings"
              },
              "encounter": {
                "reference": "Encounter/example-rec-10-no-screenings-prefetch"
              },
              "_authoredOn": {
                "extension": [
                  {
                    "url": "http://hl7.org/fhir/StructureDefinition/cqf-expression",
                    "valueExpression": {
                      "language": "text/cql",
                      "expression": "Today() - 90 days"
                    }
                  }
                ]
              },
              "dosageInstruction": [
                {
                  "timing": {
                    "repeat": {
                      "frequency": 3,
                      "period": 1.0,
                      "periodUnit": "d"
                    }
                  },
                  "asNeededBoolean": false,
                  "doseAndRate": [
                    {
                      "doseQuantity": {
                        "value": 1.0,
                        "unit": "tablet"
                      }
                    }
                  ]
                }
              ],
              "dispenseRequest": {
                "_validityPeriod": {
                  "extension": [
                    {
                      "url": "http://hl7.org/fhir/StructureDefinition/cqf-expression",
                      "valueExpression": {
                        "language": "text/cql",
                        "expression": "FHIR.Period { start: FHIR.dateTime { value: Today() - 90 days }, end: FHIR.dateTime { value: Today() } }"
                      }
                    }
                  ]
                },
                "numberOfRepeatsAllowed": 3,
                "expectedSupplyDuration": {
                  "value": 30.0,
                  "unit": "days",
                  "system": "http://unitsofmeasure.org",
                  "code": "d"
                }
              }
            }
          }
        ]
      }
    },
    "item3": null,
    "item4": null
  }
}
