{
  "hookInstance": "a172a2ce-38e7-4a21-a411-522cf481d5d1",
  "fhirServer": "http://cqf-ruler.localhost:8080/fhir",
  "hook": "patient-view",
  "context": {
    "user": "Practitioner/example",
    "patientId": "Patient/example-rec-10-patient-view-no-screenings",
    "encounterId": "Encounter/example-rec-10-patient-view-no-screenings-context"
  },
  "prefetch": {
    "item1": {
      "response": {
        "status": "200 OK"
      },
      "resource": {
        "resourceType": "Patient",
        "id": "example-rec-10-patient-view-no-screenings",
        "gender": "female",
        "birthDate": "1982-01-07"
      }
    },
    "item2": {
      "response": {
        "status": "200 OK"
      },
      "resource": {
        "resourceType": "Bundle",
        "type": "searchset",
        "entry": [
          {
            "resource": {
              "resourceType": "MedicationRequest",
              "id": "example-rec-10-patient-view-no-screenings-context",
              "extension": [
                {
                  "url": "http://fhir.org/guides/cdc/opioid-cds/StructureDefinition/dataDateRoller",
                  "extension": [
                    {
                      "url": "dateLastUpdated",
                      "valueDateTime": "2022-04-28"
                    },
                    {
                      "url": "frequency",
                      "valueDuration": {
                        "value": 30.0,
                        "unit": "days",
                        "system": "http://unitsofmeasure.org",
                        "code": "d"
                      }
                    }
                  ]
                }
              ],
              "status": "active",
              "intent": "order",
              "category": {
                "coding": [
                  {
                    "system": "http://hl7.org/fhir/medication-request-category",
                    "code": "community"
                  }
                ]
              },
              "medicationReference": {
                "reference": "Medication/12bd1f88-426f-4567-85fe-db9eae37f56b",
                "display": "72 HR Fentanyl 0.075 MG/HR Transdermal System"
              },
              "subject": {
                "reference": "Patient/example-rec-10-patient-view-no-screenings"
              },
              "context": {
                "reference": "Encounter/example-rec-10-patient-view-no-screenings-context"
              },
              "authoredOn": "2022-04-28",
              "dosageInstruction": [
                {
                  "timing": {
                    "repeat": {
                      "frequency": 1,
                      "period": 12.0,
                      "periodUnit": "d"
                    }
                  },
                  "asNeededBoolean": false,
                  "doseQuantity": {
                    "value": 1.0,
                    "unit": "patch",
                    "system": "http://hl7.org/fhir/v3/orderableDrugForm",
                    "code": "PATCH"
                  }
                }
              ],
              "dispenseRequest": {
                "validityPeriod": {
                  "start": "2022-04-28",
                  "end": "2022-07-28"
                },
                "numberOfRepeatsAllowed": 3,
                "expectedSupplyDuration": {
                  "value": 30,
                  "unit": "days",
                  "system": "http://unitsofmeasure.org",
                  "code": "d"
                }
              }
            }
          },
          {
            "resource": {
              "resourceType": "MedicationRequest",
              "id": "example-rec-10-patient-view-no-screenings-prefetch",
              "extension": [
                {
                  "url": "http://fhir.org/guides/cdc/opioid-cds/StructureDefinition/dataDateRoller",
                  "extension": [
                    {
                      "url": "dateLastUpdated",
                      "valueDateTime": "2022-04-28"
                    },
                    {
                      "url": "frequency",
                      "valueDuration": {
                        "value": 30.0,
                        "unit": "days",
                        "system": "http://unitsofmeasure.org",
                        "code": "d"
                      }
                    }
                  ]
                }
              ],
              "status": "active",
              "intent": "order",
              "category": {
                "coding": [
                  {
                    "system": "http://hl7.org/fhir/medication-request-category",
                    "code": "community"
                  }
                ]
              },
              "medicationReference": {
                "reference": "Medication/371016cf-18eb-4311-bbc9-0ef2b923a8c9",
                "display": "12 HR Oxycodone Hydrochloride 10 MG Extended Release Oral Tablet"
              },
              "subject": {
                "reference": "Patient/example-rec-10-patient-view-no-screenings"
              },
              "context": {
                "reference": "Encounter/example-rec-10-patient-view-no-screenings-prefetch"
              },
              "authoredOn": "2022-01-28",
              "dosageInstruction": [
                {
                  "timing": {
                    "repeat": {
                      "frequency": 3,
                      "period": 1.0,
                      "periodUnit": "d"
                    }
                  },
                  "asNeededBoolean": false,
                  "doseQuantity": {
                    "value": 1.0,
                    "unit": "tablet",
                    "system": "http://hl7.org/fhir/v3/orderableDrugForm",
                    "code": "TAB"
                  }
                }
              ],
              "dispenseRequest": {
                "validityPeriod": {
                  "start": "2022-01-28",
                  "end": "2022-04-28"
                },
                "numberOfRepeatsAllowed": 3,
                "expectedSupplyDuration": {
                  "value": 30.0,
                  "unit": "days",
                  "system": "http://unitsofmeasure.org",
                  "code": "d"
                }
              }
            }
          }
        ]
      }
    },
    "item3": {
      "response": {
        "status": "200 OK"
      },
      "resource": {
        "resourceType": "Bundle",
        "entry": [
          {
            "resource": {
              "resourceType": "Medication",
              "id": "12bd1f88-426f-4567-85fe-db9eae37f56b",
              "code": {
                "coding": [
                  {
                    "system": "http://www.nlm.nih.gov/research/umls/rxnorm",
                    "code": "197696"
                  }
                ]
              },
              "isBrand": false,
              "isOverTheCounter": false,
              "form": {
                "coding": [
                  {
                    "system": "urn:oid:1.2.840.114350.1.13.90.3.7.4.698288.310",
                    "code": "tablet",
                    "display": "tablet"
                  }
                ]
              }
            }
          },
          {
            "resource": {
              "resourceType": "Medication",
              "id": "371016cf-18eb-4311-bbc9-0ef2b923a8c9",
              "code": {
                "coding": [
                  {
                    "system": "http://www.nlm.nih.gov/research/umls/rxnorm",
                    "code": "1049502"
                  }
                ]
              },
              "isBrand": false,
              "isOverTheCounter": false,
              "form": {
                "coding": [
                  {
                    "system": "urn:oid:1.2.840.114350.1.13.90.3.7.4.698288.310",
                    "code": "tablet",
                    "display": "tablet"
                  }
                ]
              }
            }
          }
        ]
      }
    },
    "item4": null,
    "item5": null,
    "item6": null
  }
}
