{
  "hookInstance": "3a2ff17f-4d50-43a0-a409-20d7686b90ea",
  "fhirServer": "http://localhost:8080/cqf-ruler-dstu3/fhir",
  "hook": "order-select",
  "user": "Practitioner/example",
  "applyCql": true,
  "context": {
    "patientId": "Patient/example-rec-04-new-patient",
    "encounterId": "Encounter/example-rec-04-new-patient-context",
    "draftOrders": {
      "resourceType": "MedicationRequest",
      "id": "example-rec-04-new-patient-context",
      "status": "active",
      "intent": "order",
      "category": {
        "coding": [
          {
            "system": "http://hl7.org/fhir/medication-request-category",
            "code": "community"
          }
        ]
      },
      "medicationCodeableConcept": {
        "coding": [
          {
            "system": "http://www.nlm.nih.gov/research/umls/rxnorm",
            "code": "1049502",
            "display": "12 HR Oxycodone Hydrochloride 10 MG Extended Release Oral Tablet"
          }
        ]
      },
      "subject": {
        "reference": "Patient/example-rec-04-new-patient"
      },
      "context": {
        "reference": "Encounter/example-rec-04-new-patient-context"
      },
      "_authoredOn": {
        "extension": [
          {
            "url": "http://fhir.org/guides/cdc/opioid-cds/StructureDefinition/cdc-valueset-query",
            "valueString": "Today()"
          }
        ]
      },
      "dosageInstruction": [
        {
          "timing": {
            "repeat": {
              "frequency": 1,
              "period": 3.0,
              "periodUnit": "d"
            }
          },
          "asNeededBoolean": false,
          "doseQuantity": {
            "value": 1.0,
            "unit": "patch",
            "system": "http://hl7.org/fhir/v3/orderableDrugForm",
            "code": "PATCH"
          }
        }
      ],
      "dispenseRequest": {
        "validityPeriod": {
          "extension": [
            {
              "url": "http://fhir.org/guides/cdc/opioid-cds/StructureDefinition/cdc-valueset-query",
              "valueString": "FHIR.Period { start: FHIR.dateTime { value: Today() }, end: FHIR.dateTime { value: Today() + 3 months } }"
            }
          ]
        },
        "numberOfRepeatsAllowed": 3,
        "expectedSupplyDuration": {
          "value": 30.0,
          "unit": "days",
          "system": "http://unitsofmeasure.org",
          "code": "d"
        }
      }
    }
  },
  "prefetch": {
    "item1": {
      "response": {
        "status": "200 OK"
      },
      "resource": {
        "resourceType": "Patient",
        "id": "example-rec-04-new-patient",
        "gender": "male",
        "birthDate": "1982-01-07"
      }
    }
  }
}
