{
  "hookInstance": "b32cab7a-75ea-4cd1-9514-20ebf473cac9",
  "fhirServer": "http://localhost:8080/cqf-ruler-dstu3/fhir",
  "hook": "order-sign",
  "user": "Practitioner/example",
  "applyCql": true,
  "context": {
    "patientId": "Patient/example-rec-08-substance-abuse",
    "encounterId": "Encounter/example-rec-08-substance-abuse-context",
    "selections": [
      "MedicationRequest/example-rec-08-substance-abuse-context"
    ],
    "draftOrders": {
        "resourceType": "MedicationRequest",
        "id": "example-rec-08-substance-abuse-context",
        "status": "active",
        "intent": "order",
        "category": {
          "coding": [
            {
              "system": "http://hl7.org/fhir/medication-request-category",
              "code": "community"
            }
          ]
        },
        "medicationCodeableConcept": {
          "coding": [
            {
              "system": "http://www.nlm.nih.gov/research/umls/rxnorm",
              "code": "197696",
              "display": "72 HR Fentanyl 0.075 MG/HR Transdermal System"
            }
          ]
        },
        "subject": {
          "reference": "Patient/example-rec-08-substance-abuse"
        },
        "context": {
          "reference": "Encounter/example-rec-08-substance-abuse-context"
        },
        "_authoredOn": {
          "extension": [
            {
              "url": "http://fhir.org/guides/cdc/opioid-cds/StructureDefinition/cdc-valueset-query",
              "valueString": "Today()"
            }
          ]
        },
        "dosageInstruction": [
          {
            "timing": {
              "repeat": {
                "frequency": 1,
                "period": 12.0,
                "periodUnit": "d"
              }
            },
            "asNeededBoolean": false,
            "doseQuantity": {
              "value": 1.0,
              "unit": "patch",
				      "system": "http://hl7.org/fhir/v3/orderableDrugForm",
				      "code": "PATCH"
            }
          }
        ],
        "dispenseRequest": {
          "validityPeriod": {
            "extension": [
              {
                "url": "http://fhir.org/guides/cdc/opioid-cds/StructureDefinition/cdc-valueset-query",
                "valueString": "FHIR.Period { start: FHIR.dateTime { value: Today() }, end: FHIR.dateTime { value: Today() + 3 months } }"
              }
            ]
          },
          "numberOfRepeatsAllowed": 3,
          "expectedSupplyDuration": {
            "value": 30.0,
            "unit": "days",
            "system": "http://unitsofmeasure.org",
            "code": "d"
          }
        }
      }
  },
  "prefetch": {
    "item1": null,
    "item2": {
      "response": {
        "status": "200 OK"
      },
      "resource": {
        "resourceType": "Encounter",
        "id": "example-rec-08-substance-abuse-prefetch",
        "status": "finished",
        "subject": {
          "reference": "Patient/example-rec-08-substance-abuse"
        },
        "period": {
          "extension": [
            {
              "url": "http://fhir.org/guides/cdc/opioid-cds/StructureDefinition/cdc-valueset-query",
              "valueString": "FHIR.Period { start: FHIR.dateTime { value: Today() - 14 days }, end: FHIR.dateTime { value: Today() - 14 days } }"
            }
          ]
        }
      }
    },
    "item3": {
      "response": {
        "status": "200 OK"
      },
      "resource": {
        "resourceType": "Patient",
        "id": "example-rec-08-substance-abuse",
        "gender": "female",
        "birthDate": "1982-01-07"
      }
    },
    "item4": {
      "response": {
        "status": "200 OK"
      },
      "resource": {
        "resourceType": "Condition",
        "id": "example-rec-08-substance-abuse-condition",
        "clinicalStatus": "active",
        "category": [
          {
            "coding": [
              {
                "system": "http://hl7.org/fhir/condition-category",
                "code": "encounter-diagnosis",
                "display": "Encounter Diagnosis"
              },
              {
                "system": "http://snomed.info/sct",
                "code": "439401001",
                "display": "Diagnosis"
              }
            ]
          }
        ],
        "code": {
          "coding": [
            {
              "system": "http://snomed.info/sct",
              "version": "http://snomed.info/sct/731000124108/version/20200301",
              "code": "191865004",
              "display": "Combined opioid with other drug dependence"
            }
          ]
        },
        "subject": {
          "reference": "Patient/example-rec-08-substance-abuse"
        },
        "_assertedDate": {
          "extension": [
            {
              "url": "http://fhir.org/guides/cdc/opioid-cds/StructureDefinition/cdc-valueset-query",
              "valueString": "Today() - 30 days"
            }
          ]
        }
      }
    },
    "item5": null,
    "item6": null,
    "item7": null,
    "item8": null,
    "item9": null,
    "item10": null,
    "item11": null,
    "item12": null,
    "item13": null,
    "item14": null,
    "item15": null,
    "item16": null
  }
}
