{
  "hookInstance": "becfdcbd-0f8c-4f01-831c-a20ff695c5b3",
  "fhirServer": "http://cqf-ruler.localhost:8080/fhir",
  "hook": "order-sign",
  "user": "Practitioner/example",
  "context": {
    "patientId": "Patient/example-rec-08-on-naloxone",
    "encounterId": "Encounter/example-rec-08-on-naloxone-context",
    "selections": [
      "MedicationRequest/example-rec-08-on-naloxone-context"
    ],
    "draftOrders": {
      "resourceType": "MedicationRequest",
      "id": "example-rec-08-on-naloxone-context",
      "extension": [
        {
          "url": "http://fhir.org/guides/cdc/opioid-cds/StructureDefinition/dataDateRoller",
          "extension": [
            {
              "url": "dateLastUpdated",
              "valueDateTime": "2022-04-28"
            },
            {
              "url": "frequency",
              "valueDuration": {
                "value": 30.0,
                "unit": "days",
                "system": "http://unitsofmeasure.org",
                "code": "d"
              }
            }
          ]
        }
      ],
      "status": "active",
      "intent": "order",
      "category": {
        "coding": [
          {
            "system": "http://hl7.org/fhir/medication-request-category",
            "code": "community"
          }
        ]
      },
      "medicationCodeableConcept": {
        "coding": [
          {
            "system": "http://www.nlm.nih.gov/research/umls/rxnorm",
            "code": "197696",
            "display": "72 HR Fentanyl 0.075 MG/HR Transdermal System"
          }
        ]
      },
      "subject": {
        "reference": "Patient/example-rec-08-on-naloxone"
      },
      "context": {
        "reference": "Encounter/example-rec-08-on-naloxone-context"
      },
      "authoredOn": "2022-04-28",
      "dosageInstruction": [
        {
          "timing": {
            "repeat": {
              "frequency": 1,
              "period": 12.0,
              "periodUnit": "d"
            }
          },
          "asNeededBoolean": false,
          "doseQuantity": {
            "value": 1.0,
            "unit": "patch",
            "system": "http://hl7.org/fhir/v3/orderableDrugForm",
            "code": "PATCH"
          }
        }
      ],
      "dispenseRequest": {
        "validityPeriod": {
          "start": "2022-04-28",
          "end": "2022-07-28"
        },
        "numberOfRepeatsAllowed": 3,
        "expectedSupplyDuration": {
          "value": 30.0,
          "unit": "days",
          "system": "http://unitsofmeasure.org",
          "code": "d"
        }
      }
    }
  },
  "prefetch": {
    "item1": {
      "response": {
        "status": "200 OK"
      },
      "resource": {
        "resourceType": "MedicationRequest",
        "id": "example-rec-08-on-naloxone-prefetch",
        "extension": [
          {
            "url": "http://fhir.org/guides/cdc/opioid-cds/StructureDefinition/dataDateRoller",
            "extension": [
              {
                "url": "dateLastUpdated",
                "valueDateTime": "2022-04-28"
              },
              {
                "url": "frequency",
                "valueDuration": {
                  "value": 30.0,
                  "unit": "days",
                  "system": "http://unitsofmeasure.org",
                  "code": "d"
                }
              }
            ]
          }
        ],
        "status": "active",
        "intent": "order",
        "category": {
          "coding": [
            {
              "system": "http://hl7.org/fhir/medication-request-category",
              "code": "community"
            }
          ]
        },
        "medicationCodeableConcept": {
          "coding": [
            {
              "system": "http://www.nlm.nih.gov/research/umls/rxnorm",
              "code": "1191212",
              "display": "Naloxone Hydrochloride 0.02 MG/ML Injectable Solution"
            }
          ]
        },
        "subject": {
          "reference": "Patient/example-rec-08-on-naloxone"
        },
        "context": {
          "reference": "Encounter/example-rec-08-on-naloxone-prefetch"
        },
        "authoredOn": "2022-04-14",
        "dosageInstruction": [
          {
            "timing": {
              "repeat": {
                "frequency": 1,
                "period": 1.0,
                "periodUnit": "d"
              }
            },
            "asNeededBoolean": false,
            "doseQuantity": {
              "value": 5.0,
              "unit": "mL"
            }
          }
        ],
        "dispenseRequest": {
          "validityPeriod": {
            "start": "2022-04-14",
            "end": "2022-07-28"
          },
          "numberOfRepeatsAllowed": 3,
          "expectedSupplyDuration": {
            "value": 30.0,
            "unit": "days",
            "system": "http://unitsofmeasure.org",
            "code": "d"
          }
        }
      }
    },
    "item2": {
      "response": {
        "status": "200 OK"
      },
      "resource": {
        "resourceType": "Encounter",
        "id": "example-rec-08-on-naloxone-prefetch",
        "extension": [
          {
            "url": "http://fhir.org/guides/cdc/opioid-cds/StructureDefinition/dataDateRoller",
            "extension": [
              {
                "url": "dateLastUpdated",
                "valueDateTime": "2022-04-28"
              },
              {
                "url": "frequency",
                "valueDuration": {
                  "value": 30.0,
                  "unit": "days",
                  "system": "http://unitsofmeasure.org",
                  "code": "d"
                }
              }
            ]
          }
        ],
        "status": "finished",
        "subject": {
          "reference": "Patient/example-rec-08-on-naloxone"
        },
        "period": {
          "start": "2022-04-14",
          "end": "2022-04-14"
        }
      }
    },
    "item3": {
      "response": {
        "status": "200 OK"
      },
      "resource": {
        "resourceType": "Patient",
        "id": "example-rec-08-on-naloxone",
        "gender": "female",
        "birthDate": "1982-01-07"
      }
    },
    "item4": null,
    "item5": null,
    "item6": null,
    "item7": null,
    "item8": null,
    "item9": null,
    "item10": null,
    "item11": null,
    "item12": null,
    "item13": null,
    "item14": null,
    "item15": null,
    "item16": null
  }
}
