{
  "hookInstance": "49192bd1-f7f3-4bdd-bc5f-997dd59a950a",
  "fhirServer": "http://localhost:8080/cqf-ruler-dstu3/fhir",
  "hook": "patient-view",
  "applyCql": true,
  "context": {
    "user": "Practitioner/example",
    "patientId": "Patient/example-rec12pv-diagnosis-with-treatment-medrequest",
    "encounterId": "Encounter/example-rec12pv-diagnosis-with-treatment-medrequest-prefetch"
  },
  "prefetch": {
    "item1": {
      "response": {
        "status": "200 OK"
      },
      "resource": {
        "resourceType": "Patient",
        "id": "example-rec12pv-diagnosis-with-treatment-medrequest",
        "gender": "male",
        "birthDate": "1982-01-07"
      }
    },
    "item2": {
      "response": {
        "status": "200 OK"
      },
      "resource": {
        "resourceType": "Condition",
        "id": "example-rec12pv-diagnosis-with-treatment-medrequest",
        "clinicalStatus": "active",
        "category": [
          {
            "coding": [
              {
                "system": "http://hl7.org/fhir/CodeSystem/condition-category",
                "code": "encounter-diagnosis",
                "display": "Encounter Diagnosis"
              },
              {
                "system": "http://snomed.info/sct",
                "code": "439401001",
                "display": "Diagnosis"
              }
            ]
          }
        ],
        "code": {
          "coding": [
            {
              "system": "http://snomed.info/sct",
              "version": "http://snomed.info/sct/731000124108/version/20200301",
              "code": "191865004",
              "display": "Combined opioid with other drug dependence"
            }
          ]
        },
        "subject": {
          "reference": "Patient/example-rec12pv-diagnosis-with-treatment-medrequest"
        },
        "_assertedDate": {
          "extension": [
            {
              "url": "http://hl7.org/fhir/StructureDefinition/cqif-cqlExpression",
              "valueString": "Today() - 30 days"
            }
          ]
        }
      }
    },
    "item3": {
      "response": {
        "status": "200 OK"
      },
      "resource": {
        "resourceType": "MedicationRequest",
        "id": "example-rec12pv-diagnosis-with-treatment-medrequest-prefetch",
        "status": "active",
        "intent": "order",
        "category": {
          "coding": [
            {
              "code": "community"
            }
          ]
        },
        "medicationCodeableConcept": {
          "coding": [
            {
              "system": "http://www.nlm.nih.gov/research/umls/CodeSystem/rxnorm",
              "code": "246474",
              "display": "Buprenorphine 0.2 MG Sublingual Tablet"
            }
          ]
        },
        "subject": {
          "reference": "Patient/example-rec12pv-diagnosis-with-treatment-medrequest"
        },
        "context": {
          "reference": "Encounter/example-rec12pv-diagnosis-with-treatment-medrequest-prefetch"
        },
        "_authoredOn": {
          "extension": [
            {
              "url": "http://hl7.org/fhir/StructureDefinition/cqif-cqlExpression",
              "valueString": "Today() - 4 weeks"
            }
          ]
        },
        "dosageInstruction": [
          {
            "timing": {
              "repeat": {
                "frequency": 1,
                "period": 1.0,
                "periodUnit": "d"
              }
            },
            "asNeededBoolean": false,
            "doseQuantity": {
              "value": 1.0,
              "unit": "capsule"
            }
          }
        ],
        "dispenseRequest": {
          "validityPeriod": {
            "extension": [
              {
                "url": "http://hl7.org/fhir/StructureDefinition/cqif-cqlExpression",
                "valueString": "FHIR.Period { start: FHIR.dateTime { value: Today() - 4 weeks }, end: FHIR.dateTime { value: Today() + 3 months } }"
              }
            ]
          },
          "numberOfRepeatsAllowed": 3,
          "expectedSupplyDuration": {
            "value": 30.0,
            "unit": "days",
            "system": "http://unitsofmeasure.org",
            "code": "d"
          }
        }
      }
    }
  }
}
