{
  "hookInstance": "e9f6b9a0-366c-47af-b11b-f6d54797030a",
  "fhirServer": "http://localhost:8080/fhir",
  "hook": "order-select",
  "user": "Practitioner/example",
  "context": {
    "user": "Practitioner/example",
    "patientId": "Patient/example-rec-04-patient-view-not-long-acting-opioid",
    "encounterId": "Encounter/example-rec-04-patient-view-not-long-acting-opioid-context"
  },
  "prefetch": {
    "item1": {
      "response": {
        "status": "200 OK"
      },
      "resource": {
        "resourceType": "MedicationRequest",
        "id": "example-rec-04-patient-view-not-long-acting-opioid-prefetch",
        "status": "active",
        "intent": "order",
        "category": {
          "coding": [
            {
              "system": "http://hl7.org/fhir/medication-request-category",
              "code": "community"
            }
          ]
        },
        "medicationCodeableConcept": {
          "coding": [
            {
              "system": "http://www.nlm.nih.gov/research/umls/rxnorm",
              "code": "1049502xxx",
              "display": "12 HR Oxycodone Hydrochloride 10 MG NOT Extended Release Oral Tablet"
            }
          ]
        },
        "subject": {
          "reference": "Patient/example-rec-04-patient-view-not-long-acting-opioid"
        },
        "context": {
          "reference": "Encounter/example-rec-04-patient-view-not-long-acting-opioid-prefetch"
        },
        "authoredOn": "2021-12-08",
        "dosageInstruction": [
          {
            "timing": {
              "repeat": {
                "frequency": 1,
                "period": 3.0,
                "periodUnit": "d"
              }
            },
            "asNeededBoolean": false,
            "doseQuantity": {
              "value": 1.0,
              "unit": "patch",
				      "system": "http://hl7.org/fhir/v3/orderableDrugForm",
				      "code": "PATCH"
            }
          }
        ],
        "dispenseRequest": {
          "validityPeriod": {
            "start": "2021-12-08",
            "end": "2022-07-08"
          },
          "numberOfRepeatsAllowed": 3,
          "expectedSupplyDuration": {
            "value": 30.0,
            "unit": "days",
            "system": "http://unitsofmeasure.org",
            "code": "d"
          }
        }
      }
    },
    "item2": {
      "response": {
        "status": "200 OK"
      },
      "resource": {
        "resourceType": "Patient",
        "id": "example-rec-04-patient-view-not-long-acting-opioid",
        "gender": "male",
        "birthDate": "1982-01-07"
      }
    }
  }
}
