{
  "hookInstance": "1bf95787-c6eb-42c5-aacd-405803921024",
  "fhirServer": "http://localhost:8080/fhir",
  "hook": "patient-view",
  "user": "Practitioner/example",
  "context": {
    "patientId": "Patient/example-rec-04-patient-view-opioid-with-abuse-potential",
    "encounterId": "Encounter/example-rec-04-patient-view-opioid-with-abuse-potential-context",
    "medications": [
      {
        "resourceType": "MedicationRequest",
        "id": "example-rec-04-patient-view-opioid-with-abuse-potential-context",
        "status": "active",
        "intent": "order",
        "category": {
          "coding": [
            {
              "system": "http://hl7.org/fhir/medication-request-category",
              "code": "community"
            }
          ]
        },
        "medicationCodeableConcept": {
          "coding": [
            {
              "system": "http://www.nlm.nih.gov/research/umls/rxnorm",
              "code": "1049502",
              "display": "12 HR Oxycodone Hydrochloride 10 MG Extended Release Oral Tablet"
            }
          ]
        },
        "subject": {
          "reference": "Patient/example-rec-04-patient-view-opioid-with-abuse-potential"
        },
        "context": {
          "reference": "Encounter/example-rec-04-patient-view-opioid-with-abuse-potential-context"
        },
        "authoredOn": "2022-04-08",
        "dosageInstruction": [
          {
            "timing": {
              "repeat": {
                "frequency": 1,
                "period": 3.0,
                "periodUnit": "d"
              }
            },
            "asNeededBoolean": false,
            "doseQuantity": {
              "value": 1.0,
              "unit": "patch",
				      "system": "http://hl7.org/fhir/v3/orderableDrugForm",
				      "code": "PATCH"
            }
          }
        ],
        "dispenseRequest": {
          "validityPeriod": {
            "start": "2022-04-08",
            "end": "2022-07-08"
          },
          "numberOfRepeatsAllowed": 3,
          "expectedSupplyDuration": {
            "value": 30.0,
            "unit": "days",
            "system": "http://unitsofmeasure.org",
            "code": "d"
          }
        }
      }
    ]
  },
  "prefetch": {
    "item1": {
      "response": {
        "status": "200 OK"
      },
      "resource": {
        "resourceType": "MedicationRequest",
        "id": "example-rec-04-patient-view-opioid-with-abuse-potential-prefetch",
        "status": "active",
        "intent": "order",
        "category": {
          "coding": [
            {
              "system": "http://hl7.org/fhir/medication-request-category",
              "code": "community"
            }
          ]
        },
        "medicationCodeableConcept": {
          "coding": [
            {
              "system": "http://www.nlm.nih.gov/research/umls/rxnorm",
              "code": "1049502",
              "display": "12 HR Oxycodone Hydrochloride 10 MG Extended Release Oral Tablet"
            }
          ]
        },
        "subject": {
          "reference": "Patient/example-rec-04-patient-view-opioid-with-abuse-potential"
        },
        "context": {
          "reference": "Encounter/example-rec-04-patient-view-opioid-with-abuse-potential-prefetch"
        },
        "authoredOn": "2022-03-25",
        "dosageInstruction": [
          {
            "timing": {
              "repeat": {
                "frequency": 1,
                "period": 3.0,
                "periodUnit": "d"
              }
            },
            "asNeededBoolean": false,
            "doseQuantity": {
              "value": 1.0,
              "unit": "patch"
            }
          }
        ],
        "dispenseRequest": {
          "validityPeriod": {
            "start": "2022-03-25",
            "end": "2022-07-08"
          },
          "numberOfRepeatsAllowed": 3,
          "expectedSupplyDuration": {
            "value": 30.0,
            "unit": "days",
            "system": "http://unitsofmeasure.org",
            "code": "d"
          }
        }
      }
    },
    "item2": {
      "response": {
        "status": "200 OK"
      },
      "resource": {
        "resourceType": "Encounter",
        "id": "example-rec-04-patient-view-opioid-with-abuse-potential-prefetch",
        "status": "finished",
        "subject": {
          "reference": "Patient/example-rec-04-patient-view-opioid-with-abuse-potential"
        },
        "period": {
          "start": "2022-03-25",
          "end": "2022-03-25"
        }
      }
    },
    "item3": {
      "response": {
        "status": "200 OK"
      },
      "resource": {
        "resourceType": "Patient",
        "id": "example-rec-04-patient-view-opioid-with-abuse-potential",
        "gender": "male",
        "birthDate": "1982-01-07"
      }
    },
    "item4": null,
    "item5": null,
    "item6": null,
    "item7": null,
    "item8": null,
    "item9": null,
    "item10": null,
    "item11": null,
    "item12": null,
    "item13": null
  }
}
