{
  "hookInstance": "b266185d-c26a-40dd-a024-70b5b6222170",
  "fhirServer": "http://localhost:8080/cqf-ruler/baseDstu3",
  "hook": "medication-prescribe",
  "user": "Practitioner/example",
  "applyCql": true,
  "context": {
    "patientId": "Patient/example-rec-11-benzo-trigger-with-opioid",
    "encounterId": "Encounter/example-rec-11-benzo-trigger-with-opioid-context",
    "medications": [
      {
        "resourceType": "MedicationRequest",
        "id": "example-rec-11-benzo-trigger-with-opioid-context",
        "status": "active",
        "intent": "order",
        "category": {
          "coding": [
            {
              "system": "http://hl7.org/fhir/medication-request-category",
              "code": "outpatient"
            }
          ]
        },
        "medicationCodeableConcept": {
          "coding": [
            {
              "system": "http://www.nlm.nih.gov/research/umls/rxnorm",
              "code": "1298088",
              "display": "Flurazepam Hydrochloride 15 MG Oral Capsule"
            }
          ]
        },
        "subject": {
          "reference": "Patient/example-rec-11-benzo-trigger-with-opioid"
        },
        "context": {
          "reference": "Encounter/example-rec-11-benzo-trigger-with-opioid-context"
        },
        "_authoredOn": {
          "extension": [
            {
              "url": "http://hl7.org/fhir/StructureDefinition/cqif-cqlExpression",
              "valueString": "Today()"
            }
          ]
        },
        "dosageInstruction": [
          {
            "timing": {
              "repeat": {
                "frequency": 1,
                "period": 1.0,
                "periodUnit": "d"
              }
            },
            "asNeededBoolean": false,
            "doseQuantity": {
              "value": 1.0,
              "unit": "capsule"
            }
          }
        ],
        "dispenseRequest": {
          "validityPeriod": {
            "extension": [
              {
                "url": "http://hl7.org/fhir/StructureDefinition/cqif-cqlExpression",
                "valueString": "FHIR.Period { start: FHIR.dateTime { value: Today() }, end: FHIR.dateTime { value: Today() + 3 months } }"
              }
            ]
          },
          "numberOfRepeatsAllowed": 3,
          "expectedSupplyDuration": {
            "value": 30.0,
            "unit": "d"
          }
        }
      }
    ]
  },
  "prefetch": {
    "item1": {
      "response": {
        "status": "200 OK"
      },
      "resource": {
        "resourceType": "MedicationRequest",
        "id": "example-rec-11-benzo-trigger-with-opioid-prefetch",
        "status": "active",
        "intent": "order",
        "category": {
          "coding": [
            {
              "system": "http://hl7.org/fhir/medication-request-category",
              "code": "outpatient"
            }
          ]
        },
        "medicationCodeableConcept": {
          "coding": [
            {
              "system": "http://www.nlm.nih.gov/research/umls/rxnorm",
              "code": "1049502",
              "display": "12 HR Oxycodone Hydrochloride 10 MG Extended Release Oral Tablet"
            }
          ]
        },
        "subject": {
          "reference": "Patient/example-rec-11-benzo-trigger-with-opioid"
        },
        "context": {
          "reference": "Encounter/example-rec-11-benzo-trigger-with-opioid-prefetch"
        },
        "_authoredOn": {
          "extension": [
            {
              "url": "http://hl7.org/fhir/StructureDefinition/cqif-cqlExpression",
              "valueString": "Today() - 28 days"
            }
          ]
        },
        "dosageInstruction": [
          {
            "timing": {
              "repeat": {
                "frequency": 1,
                "period": 1.0,
                "periodUnit": "d"
              }
            },
            "asNeededBoolean": false,
            "doseQuantity": {
              "value": 1.0,
              "unit": "tablet"
            }
          }
        ],
        "dispenseRequest": {
          "validityPeriod": {
            "extension": [
              {
                "url": "http://hl7.org/fhir/StructureDefinition/cqif-cqlExpression",
                "valueString": "FHIR.Period { start: FHIR.dateTime { value: Today() - 28 days }, end: FHIR.dateTime { value: Today() + 3 months } }"
              }
            ]
          },
          "numberOfRepeatsAllowed": 3,
          "expectedSupplyDuration": {
            "value": 30.0,
            "unit": "d"
          }
        }
      }
    },
    "item2": {
      "response": {
        "status": "200 OK"
      },
      "resource": {
        "resourceType": "Encounter",
        "id": "example-rec-11-benzo-trigger-with-opioid-prefetch",
        "status": "finished",
        "subject": {
          "reference": "Patient/example-rec-11-benzo-trigger-with-opioid"
        },
        "period": {
          "extension": [
            {
              "url": "http://hl7.org/fhir/StructureDefinition/cqif-cqlExpression",
              "valueString": "FHIR.Period { start: FHIR.dateTime { value: Today() - 28 days }, end: FHIR.dateTime { value: Today() - 28 days } }"
            }
          ]
        }
      }
    },
    "item3": {
      "response": {
        "status": "200 OK"
      },
      "resource": {
        "resourceType": "Patient",
        "id": "example-rec-11-benzo-trigger-with-opioid",
        "gender": "female",
        "birthDate": "1982-01-07"
      }
    },
    "item4": null,
    "item5": null,
    "item6": null,
    "item7": null,
    "item8": null,
    "item9": null,
    "item10": null,
    "item11": null,
    "item12": null,
    "item13": null,
    "item14": null
  }
}