{
  "resourceType": "Bundle",
  "id": "OpioidCDSREC07-bundle",
  "type": "transaction",
  "entry": [ {
    "resource": {
      "resourceType": "PlanDefinition",
      "id": "opioidcds-07",
      "url": "http://fhir.org/guides/cdc/opioid-cds/PlanDefinition/opioidcds-07",
      "version": "1.2.3",
      "name": "PlanDefinition_Recommendation_7",
      "title": "PlanDefinition - CDC Opioid Prescribing Guideline Recommendation #7",
      "type": {
        "coding": [ {
          "system": "http://hl7.org/fhir/plan-definition-type",
          "code": "eca-rule",
          "display": "ECA Rule"
        } ]
      },
      "status": "draft",
      "publisher": "Centers for Disease Control and Prevention (CDC)",
      "description": "Clinicians should evaluate benefits and harms with patients within 1 to 4 weeks of starting opioid therapy for chronic pain or of dose escalation. Clinicians should evaluate benefits and harms of continued therapy with patients every 3 months or more frequently.",
      "purpose": "CDC’s Guideline for Prescribing Opioids for Chronic Pain is intended to improve communication between providers and patients about the risks and benefits of opioid therapy for chronic pain, improve the safety and effectiveness of pain treatment, and reduce the risks associated with long-term opioid therapy, including opioid use disorder and overdose. The Guideline is not intended for patients who are in active cancer treatment, palliative care, or end-of-life care.",
      "usage": "If benefits do not outweigh harms of continued opioid therapy, clinicians should optimize other therapies and work with patients to taper opioids to lower dosages or to taper and discontinue opioids.",
      "useContext": [ {
        "code": {
          "system": "http://hl7.org/fhir/usage-context-type",
          "code": "focus",
          "display": "Clinical Focus"
        },
        "valueCodeableConcept": {
          "coding": [ {
            "system": "http://snomed.info/sct",
            "code": "182888003",
            "display": "Medication requested (situation)"
          } ]
        }
      }, {
        "code": {
          "system": "http://hl7.org/fhir/usage-context-type",
          "code": "focus",
          "display": "Clinical Focus"
        },
        "valueCodeableConcept": {
          "coding": [ {
            "system": "http://snomed.info/sct",
            "code": "82423001",
            "display": "Chronic pain (finding)"
          } ]
        }
      } ],
      "jurisdiction": [ {
        "coding": [ {
          "system": "urn:iso:std:iso:3166",
          "code": "US",
          "display": "United States of America"
        } ]
      } ],
      "topic": [ {
        "text": "Opioid Prescribing"
      } ],
      "contributor": [ {
        "type": "author",
        "name": "Kensaku Kawamoto, MD, PhD, MHS"
      }, {
        "type": "author",
        "name": "Bryn Rhodes"
      }, {
        "type": "author",
        "name": "Floyd Eisenberg, MD, MPH"
      }, {
        "type": "author",
        "name": "Robert McClure, MD, MPH"
      } ],
      "copyright": "© CDC 2016+.",
      "library": [ {
        "reference": "Library/OpioidCDSREC07"
      } ],
      "action": [ {
        "label": "Assessment of risk for opioid use procedure",
        "title": "Existing patient should be evaluated for risk of continued opioid therapy.",
        "description": "Checking if the trigger prescription meets the inclusion criteria for recommendation #7 workflow.",
        "documentation": [ {
          "type": "documentation",
          "display": "CDC guideline for prescribing opioids for chronic pain",
          "url": "https://www.cdc.gov/mmwr/volumes/65/rr/rr6501e1.htm?CDC_AA_refVal=https%3A%2F%2Fwww.cdc.gov%2Fmmwr%2Fvolumes%2F65%2Frr%2Frr6501e1er.htm"
        }, {
          "type": "documentation",
          "document": {
            "extension": [ {
              "url": "http://hl7.org/fhir/StructureDefinition/cqif-strengthOfRecommendation",
              "valueCodeableConcept": {
                "coding": [ {
                  "system": "http://hl7.org/fhir/recommendation-strength",
                  "code": "strong",
                  "display": "Strong"
                } ]
              }
            }, {
              "url": "http://hl7.org/fhir/StructureDefinition/cqif-qualityOfEvidence",
              "valueCodeableConcept": {
                "coding": [ {
                  "system": "http://hl7.org/fhir/evidence-quality",
                  "code": "very-low",
                  "display": "Very Low quality"
                } ]
              }
            } ]
          }
        } ],
        "triggerDefinition": [ {
          "type": "named-event",
          "eventName": "order-select"
        } ],
        "condition": [ {
          "kind": "applicability",
          "description": "Check whether the existing patient, without an end of life condition or risk assessment in the past 90 days, has taken an opioid-with-abuse-potential for 7 of the past 10 days or 63 of the past 90 days.",
          "language": "text/cql",
          "expression": "Inclusion Criteria"
        } ],
        "type": {
          "system": "http://hl7.org/fhir/action-type",
          "code": "create"
        },
        "groupingBehavior": "visual-group",
        "selectionBehavior": "exactly-one",
        "definition": {
          "reference": "ActivityDefinition/opioidcds-risk-assessment-request"
        },
        "dynamicValue": [ {
          "path": "action.title",
          "expression": "Get Summary"
        }, {
          "path": "action.description",
          "expression": "Get Detail"
        }, {
          "path": "action.extension",
          "expression": "Get Indicator"
        } ],
        "action": [ {
          "description": "Will schedule assessment of risk for opioid use for the patient"
        }, {
          "description": "Risk of overdose carefully considered and outweighed by benefit; snooze 3 mo"
        }, {
          "description": "N/A - see comment; snooze 3 mo"
        } ]
      } ]
    },
    "request": {
      "method": "PUT",
      "url": "PlanDefinition/opioidcds-07"
    }
  }, {
    "resource": {
      "resourceType": "Library",
      "id": "OpioidCDSREC07",
      "text": {
        "status": "generated",
        "div": "<div xmlns=\"http://www.w3.org/1999/xhtml\"><table class=\"grid dict\"><tr><th scope=\"row\"><b>Id: </b></th><td style=\"padding-left: 25px; padding-right: 25px;\">library-OpioidCDSREC07</td></tr><tr><th scope=\"row\"><b>Type: </b></th><td style=\"padding-right: 25px;\"> Logic Library </td></tr><tr><th scope=\"row\"><b>Status: </b></th><td style=\"padding-left: 25px; padding-right: 25px;\">active</td></tr><tr style=\"vertical-align: top;\"><th rowspan=\"3\" scope=\"row\"><b>Related: </b></th><td style=\"padding-left: 25px; padding-right: 25px;\"><p style=\"margin-bottom: 5px;\"><b>type: </b><span>depends-on</span></p><p style=\"margin-bottom: 5px;\"><b>Resource: </b><br/><span><span style=\"padding-left: 25px;\"><b>reference: </b><span>http://fhir.org/guides/cdc/opioid-cds/Library/FHIRHelpers</span></span></span></p></td></tr><tr style=\"vertical-align: top;\"><td style=\"padding-left: 25px; padding-right: 25px;\"><p style=\"margin-bottom: 5px;\"><b>type: </b><span>depends-on</span></p><p style=\"margin-bottom: 5px;\"><b>Resource: </b><br/><span><span style=\"padding-left: 25px;\"><b>reference: </b><span>http://fhir.org/guides/cdc/opioid-cds/Library/library-OpioidCDSCommon</span></span></span></p></td></tr><tr style=\"vertical-align: top;\"><td style=\"padding-left: 25px; padding-right: 25px;\"><p style=\"margin-bottom: 5px;\"><b>type: </b><span>depends-on</span></p><p style=\"margin-bottom: 5px;\"><b>Resource: </b><br/><span><span style=\"padding-left: 25px;\"><b>reference: </b><span>http://fhir.org/guides/cdc/opioid-cds/Library/library-OpioidCDSRoutines</span></span></span></p></td></tr><tr style=\"vertical-align: top;\"><th rowspan=\"2\" scope=\"row\"><b>Data Requirements: </b></th><td style=\"padding-left: 25px; padding-right: 25px;\"><div><p style=\"margin-bottom: 5px;\"><b>type: </b><span>Procedure</span></p><p style=\"margin-bottom: 5px;\"><b>code filter:</b><br/><span style=\"padding-left: 25px;\"><b>path: </b><span>code</span></span><br/><span style=\"padding-left: 25px;\"><b>valueset: </b><span>org.hl7.fhir.dstu3.model.Reference@443e6fae</span></span></p></div></td></tr><tr style=\"vertical-align: top;\"><td style=\"padding-left: 25px; padding-right: 25px;\"><div><p style=\"margin-bottom: 5px;\"><b>type: </b><span>Encounter</span></p><p style=\"margin-bottom: 5px;\"><b>code filter:</b><br/><span style=\"padding-left: 25px;\"><b>path: </b><span>type</span></span><br/><span style=\"padding-left: 25px;\"><b>valueset: </b><span>org.hl7.fhir.dstu3.model.Reference@be52a84</span></span></p></div></td></tr><tr style=\"vertical-align: top;\"><th scope=\"row\"><b>Content: </b></th><td style=\"padding-left: 25px; padding-right: 25px;\"><b>type: </b><span>text/cql</span></td></tr><tr><td colspan=\"2\" style=\"padding-left: 25px; padding-right: 25px;\"><pre><code class=\"language-cql\">library OpioidCDSREC07 version '1.2.3'\n\nusing FHIR version '3.0.0'\n\ninclude FHIRHelpers version '3.0.0' called FHIRHelpers\ninclude OpioidCDSCommon version '1.2.3' called Common\ninclude OpioidCDSRoutines version '1.2.3' called Routines\n\n/*\n**\n**  Recommendation #7\n**    Clinicians should evaluate benefits and harms with patients within 1 to 4\n**    weeks of starting opioid therapy for chronic pain or of dose escalation.\n**    Clinicians should evaluate benefits and harms of continued therapy with\n**    patients every 3 months or more frequently. If benefits do not outweigh\n**    harms of continued opioid therapy, clinicians should optimize other\n**    therapies and work with patients to taper opioids to lower dosages or to\n**    taper and discontinue opioids (recommendation category: A, evidence type: 4)\n**\n**  When\n**    Provider is prescribing an opioid analgesic with ambulatory misuse potential in the outpatient setting\n**    Prescription is for treating chronic pain.\n**    Opioid review is useful for this patient:\n**      Patient is 18 or over\n**      Patient does not have findings indicating limited life expectancy\n**      Patient does not have orders for therapies indicating end of life care\n**      Patient is not undergoing active cancer treatment:\n**        Patient has had at least 2 encounters within the past year with any diagnosis of cancer\n**    Patient has not undergone an opioid misuse assessment procedure in the last 90 days\n**  Then\n**    Recommend performing opioid misuse assessment\n**      Will schedule opioid misuse assessment\n**      Benefits outweigh risks, snooze 3 months\n**      N/A - see comment, snooze 3 months\n**\n*/\n\n// META: Plan Definition: http://fhir.org/guides/cdc/opioid-cds/PlanDefinition/opioid-cds-07\n\nparameter ContextPrescriptions List&lt;MedicationRequest&gt;\n\ncontext Patient\n\ndefine &quot;Risk Assessment Interval&quot;:\n  Interval[Today() - 91 days, Today() - 1 day]\n\ndefine &quot;Previous 10 Days Interval&quot;:\n  Interval[Today() - 10 days, Today()]\n\ndefine &quot;Encounter Interval&quot;:\n  Interval[Today() - 12 months - 1 days, Today() - 1 day]\n\ndefine &quot;Chronic Pain Opioid Analgesic with Ambulatory Misuse Potential Prescriptions&quot;:\n  ( Common.&quot;Is Opioid Analgesic with Ambulatory Misuse Potential?&quot;( ContextPrescriptions ) ) AmbulatoryOpioidPrescription\n    where Routines.&quot;Is Chronic Pain Prescription?&quot;( AmbulatoryOpioidPrescription )\n\ndefine &quot;Patient Is Being Prescribed Opioid Analgesic with Ambulatory Misuse Potential&quot;:\n  exists( &quot;Chronic Pain Opioid Analgesic with Ambulatory Misuse Potential Prescriptions&quot; )\n\ndefine &quot;Is Recommendation Applicable?&quot;:\n  &quot;Inclusion Criteria&quot;\n    and not &quot;Exclusion Criteria&quot;\n\ndefine &quot;Inclusion Criteria&quot;:\n  &quot;Patient Is Being Prescribed Opioid Analgesic with Ambulatory Misuse Potential&quot;\n    and Routines.&quot;Is Opioid Review Useful?&quot;\n    and not exists ( &quot;Opioid Risk Assessment in Past 90 Days&quot; )\n    and (\n      &quot;Prescribed Opioids for 7 of Past 10 Days with an Encounter&quot;\n        or Common.&quot;Prescribed Opioids for 21 or more of 30 Days for each of the past 3 Months&quot;\n    )\n\ndefine &quot;Exclusion Criteria&quot;:\n  false\n\ndefine &quot;Opioid Risk Assessment in Past 90 Days&quot;:\n  [Procedure: Common.&quot;Opioid misuse assessment procedure&quot;] riskAssessment\n    where start of (riskAssessment.performed as FHIR.Period) in day of &quot;Risk Assessment Interval&quot;\n\ndefine &quot;Prescribed Opioids for 7 of Past 10 Days with an Encounter&quot;:\n  Common.&quot;Days on Opioids during Period&quot;(&quot;Previous 10 Days Interval&quot;) &gt;= 7\n    and exists (\n      [Encounter: Common.&quot;Office Visit&quot;] AmbulatoryEncounter\n        where AmbulatoryEncounter.period during &quot;Encounter Interval&quot;\n    )\n\ndefine &quot;Get Indicator&quot;:\n  if &quot;Is Recommendation Applicable?&quot;\n    then 'warning'\n  else null\n\ndefine &quot;Get Summary&quot;:\n  if &quot;Is Recommendation Applicable?&quot;\n    then 'Patients on opioid therapy should be evaluated for benefits and harms within 1 to 4 weeks of starting opioid therapy and every 3 months or more subsequently.'\n  else null\n\ndefine &quot;Get Detail&quot;:\n  if &quot;Is Recommendation Applicable?&quot;\n    then\n      if Common.&quot;Prescribed Opioids for 21 or more of 30 Days for each of the past 3 Months&quot;\n        then 'No evaluation for benefits and harms associated with opioid therapy has been performed for the patient in the past 3 months'\n      else 'No evaluation for benefits and harms has been performed for the patient starting opioid therapy'\n  else null\n</code></pre>\n                    \n                    \n                </td>\n            </tr>\n        \n    </table>\n</div>"
      },
      "extension": [ {
        "url": "http://hl7.org/fhir/us/cqfmeasures/StructureDefinition/cqfm-softwaresystem",
        "valueReference": {
          "reference": "cqf-tooling"
        }
      } ],
      "url": "http://fhir.org/guides/cdc/opioid-cds/Library/OpioidCDSREC07",
      "version": "1.2.3",
      "name": "OpioidCDSREC07",
      "title": "Library - Opioid CDS Logic for recommendation #7",
      "status": "active",
      "experimental": false,
      "type": {
        "coding": [ {
          "system": "http://hl7.org/fhir/library-type",
          "code": "logic-library",
          "display": "Logic Library"
        } ]
      },
      "publisher": "Centers for Disease Control and Prevention (CDC)",
      "description": "Opioid decision support logic to evaluate benefits and harms with patients within 1 to 4 weeks of starting opioid therapy and harms of continued therapy with patients every 3 months or more frequently.",
      "purpose": "The purpose of this library is to determine whether the patient has been evaluated for benefits and harms within 1 to 4 weeks of starting opioid therapy and every 3 months or more subsequently.",
      "usage": "This library is used to notify the prescriber/user whether an evaluation for benefits and harms associated with opioid therapy is recommended for the patient.",
      "useContext": [ {
        "code": {
          "system": "http://hl7.org/fhir/usage-context-type",
          "code": "focus",
          "display": "Clinical Focus"
        },
        "valueCodeableConcept": {
          "coding": [ {
            "system": "http://snomed.info/sct",
            "code": "182888003",
            "display": "Medication requested (situation)"
          } ]
        }
      }, {
        "code": {
          "system": "http://hl7.org/fhir/usage-context-type",
          "code": "focus",
          "display": "Clinical Focus"
        },
        "valueCodeableConcept": {
          "coding": [ {
            "system": "http://snomed.info/sct",
            "code": "82423001",
            "display": "Chronic pain (finding)"
          } ]
        }
      } ],
      "jurisdiction": [ {
        "coding": [ {
          "system": "urn:iso:std:iso:3166",
          "code": "US",
          "display": "United States of America"
        } ]
      } ],
      "copyright": "© CDC 2016+.",
      "relatedArtifact": [ {
        "type": "documentation",
        "display": "CDC guideline for prescribing opioids for chronic pain",
        "url": "https://www.cdc.gov/mmwr/volumes/65/rr/rr6501e1.htm?CDC_AA_refVal=https%3A%2F%2Fwww.cdc.gov%2Fmmwr%2Fvolumes%2F65%2Frr%2Frr6501e1er.htm"
      } ],
      "dataRequirement": [ {
        "extension": [ {
          "url": "http://hl7.org/fhir/tools/StructureDefinition/original-resource-name",
          "valueCode": "Procedure"
        } ],
        "type": "Procedure",
        "codeFilter": [ {
          "path": "code",
          "valueSetReference": {
            "reference": "http://fhir.org/guides/cdc/opioid-cds/ValueSet/opioid-misuse-assessment-procedure"
          }
        } ]
      }, {
        "extension": [ {
          "url": "http://hl7.org/fhir/tools/StructureDefinition/original-resource-name",
          "valueCode": "Encounter"
        } ],
        "type": "Encounter",
        "codeFilter": [ {
          "path": "type",
          "valueSetReference": {
            "reference": "http://fhir.org/guides/cdc/opioid-cds/ValueSet/office-visit"
          }
        } ]
      }, {
        "extension": [ {
          "url": "http://hl7.org/fhir/tools/StructureDefinition/original-resource-name",
          "valueCode": "Procedure"
        } ],
        "type": "Procedure",
        "codeFilter": [ {
          "path": "code",
          "valueSetReference": {
            "reference": "http://fhir.org/guides/cdc/opioid-cds/ValueSet/opioid-misuse-assessment-procedure"
          }
        } ]
      }, {
        "extension": [ {
          "url": "http://hl7.org/fhir/tools/StructureDefinition/original-resource-name",
          "valueCode": "Encounter"
        } ],
        "type": "Encounter",
        "codeFilter": [ {
          "path": "type",
          "valueSetReference": {
            "reference": "http://fhir.org/guides/cdc/opioid-cds/ValueSet/office-visit"
          }
        } ]
      }, {
        "extension": [ {
          "url": "http://hl7.org/fhir/tools/StructureDefinition/original-resource-name",
          "valueCode": "Procedure"
        } ],
        "type": "Procedure",
        "codeFilter": [ {
          "path": "code",
          "valueSetReference": {
            "reference": "http://fhir.org/guides/cdc/opioid-cds/ValueSet/opioid-misuse-assessment-procedure"
          }
        } ]
      }, {
        "extension": [ {
          "url": "http://hl7.org/fhir/tools/StructureDefinition/original-resource-name",
          "valueCode": "Encounter"
        } ],
        "type": "Encounter",
        "codeFilter": [ {
          "path": "type",
          "valueSetReference": {
            "reference": "http://fhir.org/guides/cdc/opioid-cds/ValueSet/office-visit"
          }
        } ]
      }, {
        "extension": [ {
          "url": "http://hl7.org/fhir/tools/StructureDefinition/original-resource-name",
          "valueCode": "Procedure"
        } ],
        "type": "Procedure",
        "codeFilter": [ {
          "path": "code",
          "valueSetReference": {
            "reference": "http://fhir.org/guides/cdc/opioid-cds/ValueSet/opioid-misuse-assessment-procedure"
          }
        } ]
      }, {
        "extension": [ {
          "url": "http://hl7.org/fhir/tools/StructureDefinition/original-resource-name",
          "valueCode": "Encounter"
        } ],
        "type": "Encounter",
        "codeFilter": [ {
          "path": "type",
          "valueSetReference": {
            "reference": "http://fhir.org/guides/cdc/opioid-cds/ValueSet/office-visit"
          }
        } ]
      }, {
        "extension": [ {
          "url": "http://hl7.org/fhir/tools/StructureDefinition/original-resource-name",
          "valueCode": "Procedure"
        } ],
        "type": "Procedure",
        "codeFilter": [ {
          "path": "code",
          "valueSetReference": {
            "reference": "http://fhir.org/guides/cdc/opioid-cds/ValueSet/opioid-misuse-assessment-procedure"
          }
        } ]
      }, {
        "extension": [ {
          "url": "http://hl7.org/fhir/tools/StructureDefinition/original-resource-name",
          "valueCode": "Encounter"
        } ],
        "type": "Encounter",
        "codeFilter": [ {
          "path": "type",
          "valueSetReference": {
            "reference": "http://fhir.org/guides/cdc/opioid-cds/ValueSet/office-visit"
          }
        } ]
      }, {
        "extension": [ {
          "url": "http://hl7.org/fhir/tools/StructureDefinition/original-resource-name",
          "valueCode": "Procedure"
        } ],
        "type": "Procedure",
        "codeFilter": [ {
          "path": "code",
          "valueSetReference": {
            "reference": "http://fhir.org/guides/cdc/opioid-cds/ValueSet/opioid-misuse-assessment-procedure"
          }
        } ]
      }, {
        "extension": [ {
          "url": "http://hl7.org/fhir/tools/StructureDefinition/original-resource-name",
          "valueCode": "Encounter"
        } ],
        "type": "Encounter",
        "codeFilter": [ {
          "path": "type",
          "valueSetReference": {
            "reference": "http://fhir.org/guides/cdc/opioid-cds/ValueSet/office-visit"
          }
        } ]
      }, {
        "extension": [ {
          "url": "http://hl7.org/fhir/tools/StructureDefinition/original-resource-name",
          "valueCode": "Procedure"
        } ],
        "type": "Procedure",
        "codeFilter": [ {
          "path": "code",
          "valueSetReference": {
            "reference": "http://fhir.org/guides/cdc/opioid-cds/ValueSet/opioid-misuse-assessment-procedure"
          }
        } ]
      }, {
        "extension": [ {
          "url": "http://hl7.org/fhir/tools/StructureDefinition/original-resource-name",
          "valueCode": "Encounter"
        } ],
        "type": "Encounter",
        "codeFilter": [ {
          "path": "type",
          "valueSetReference": {
            "reference": "http://fhir.org/guides/cdc/opioid-cds/ValueSet/office-visit"
          }
        } ]
      }, {
        "extension": [ {
          "url": "http://hl7.org/fhir/tools/StructureDefinition/original-resource-name",
          "valueCode": "Procedure"
        } ],
        "type": "Procedure",
        "codeFilter": [ {
          "path": "code",
          "valueSetReference": {
            "reference": "http://fhir.org/guides/cdc/opioid-cds/ValueSet/opioid-misuse-assessment-procedure"
          }
        } ]
      }, {
        "extension": [ {
          "url": "http://hl7.org/fhir/tools/StructureDefinition/original-resource-name",
          "valueCode": "Encounter"
        } ],
        "type": "Encounter",
        "codeFilter": [ {
          "path": "type",
          "valueSetReference": {
            "reference": "http://fhir.org/guides/cdc/opioid-cds/ValueSet/office-visit"
          }
        } ]
      }, {
        "extension": [ {
          "url": "http://hl7.org/fhir/tools/StructureDefinition/original-resource-name",
          "valueCode": "Procedure"
        } ],
        "type": "Procedure",
        "codeFilter": [ {
          "path": "code",
          "valueSetReference": {
            "reference": "http://fhir.org/guides/cdc/opioid-cds/ValueSet/opioid-misuse-assessment-procedure"
          }
        } ]
      }, {
        "extension": [ {
          "url": "http://hl7.org/fhir/tools/StructureDefinition/original-resource-name",
          "valueCode": "Encounter"
        } ],
        "type": "Encounter",
        "codeFilter": [ {
          "path": "type",
          "valueSetReference": {
            "reference": "http://fhir.org/guides/cdc/opioid-cds/ValueSet/office-visit"
          }
        } ]
      }, {
        "extension": [ {
          "url": "http://hl7.org/fhir/tools/StructureDefinition/original-resource-name",
          "valueCode": "Procedure"
        } ],
        "type": "Procedure",
        "codeFilter": [ {
          "path": "code",
          "valueSetReference": {
            "reference": "http://fhir.org/guides/cdc/opioid-cds/ValueSet/opioid-misuse-assessment-procedure"
          }
        } ]
      }, {
        "extension": [ {
          "url": "http://hl7.org/fhir/tools/StructureDefinition/original-resource-name",
          "valueCode": "Encounter"
        } ],
        "type": "Encounter",
        "codeFilter": [ {
          "path": "type",
          "valueSetReference": {
            "reference": "http://fhir.org/guides/cdc/opioid-cds/ValueSet/office-visit"
          }
        } ]
      }, {
        "extension": [ {
          "url": "http://hl7.org/fhir/tools/StructureDefinition/original-resource-name",
          "valueCode": "Procedure"
        } ],
        "type": "Procedure",
        "codeFilter": [ {
          "path": "code",
          "valueSetReference": {
            "reference": "http://fhir.org/guides/cdc/opioid-cds/ValueSet/opioid-misuse-assessment-procedure"
          }
        } ]
      }, {
        "extension": [ {
          "url": "http://hl7.org/fhir/tools/StructureDefinition/original-resource-name",
          "valueCode": "Encounter"
        } ],
        "type": "Encounter",
        "codeFilter": [ {
          "path": "type",
          "valueSetReference": {
            "reference": "http://fhir.org/guides/cdc/opioid-cds/ValueSet/office-visit"
          }
        } ]
      }, {
        "extension": [ {
          "url": "http://hl7.org/fhir/tools/StructureDefinition/original-resource-name",
          "valueCode": "Procedure"
        } ],
        "type": "Procedure",
        "codeFilter": [ {
          "path": "code",
          "valueSetReference": {
            "reference": "http://fhir.org/guides/cdc/opioid-cds/ValueSet/opioid-misuse-assessment-procedure"
          }
        } ]
      }, {
        "extension": [ {
          "url": "http://hl7.org/fhir/tools/StructureDefinition/original-resource-name",
          "valueCode": "Encounter"
        } ],
        "type": "Encounter",
        "codeFilter": [ {
          "path": "type",
          "valueSetReference": {
            "reference": "http://fhir.org/guides/cdc/opioid-cds/ValueSet/office-visit"
          }
        } ]
      }, {
        "extension": [ {
          "url": "http://hl7.org/fhir/tools/StructureDefinition/original-resource-name",
          "valueCode": "Procedure"
        } ],
        "type": "Procedure",
        "codeFilter": [ {
          "path": "code",
          "valueSetReference": {
            "reference": "http://fhir.org/guides/cdc/opioid-cds/ValueSet/opioid-misuse-assessment-procedure"
          }
        } ]
      }, {
        "extension": [ {
          "url": "http://hl7.org/fhir/tools/StructureDefinition/original-resource-name",
          "valueCode": "Encounter"
        } ],
        "type": "Encounter",
        "codeFilter": [ {
          "path": "type",
          "valueSetReference": {
            "reference": "http://fhir.org/guides/cdc/opioid-cds/ValueSet/office-visit"
          }
        } ]
      }, {
        "extension": [ {
          "url": "http://hl7.org/fhir/tools/StructureDefinition/original-resource-name",
          "valueCode": "Procedure"
        } ],
        "type": "Procedure",
        "codeFilter": [ {
          "path": "code",
          "valueSetReference": {
            "reference": "http://fhir.org/guides/cdc/opioid-cds/ValueSet/opioid-misuse-assessment-procedure"
          }
        } ]
      }, {
        "extension": [ {
          "url": "http://hl7.org/fhir/tools/StructureDefinition/original-resource-name",
          "valueCode": "Encounter"
        } ],
        "type": "Encounter",
        "codeFilter": [ {
          "path": "type",
          "valueSetReference": {
            "reference": "http://fhir.org/guides/cdc/opioid-cds/ValueSet/office-visit"
          }
        } ]
      }, {
        "extension": [ {
          "url": "http://hl7.org/fhir/tools/StructureDefinition/original-resource-name",
          "valueCode": "Procedure"
        } ],
        "type": "Procedure",
        "codeFilter": [ {
          "path": "code",
          "valueSetReference": {
            "reference": "http://fhir.org/guides/cdc/opioid-cds/ValueSet/opioid-misuse-assessment-procedure"
          }
        } ]
      }, {
        "extension": [ {
          "url": "http://hl7.org/fhir/tools/StructureDefinition/original-resource-name",
          "valueCode": "Encounter"
        } ],
        "type": "Encounter",
        "codeFilter": [ {
          "path": "type",
          "valueSetReference": {
            "reference": "http://fhir.org/guides/cdc/opioid-cds/ValueSet/office-visit"
          }
        } ]
      }, {
        "extension": [ {
          "url": "http://hl7.org/fhir/tools/StructureDefinition/original-resource-name",
          "valueCode": "Procedure"
        } ],
        "type": "Procedure",
        "codeFilter": [ {
          "path": "code",
          "valueSetReference": {
            "reference": "http://fhir.org/guides/cdc/opioid-cds/ValueSet/opioid-misuse-assessment-procedure"
          }
        } ]
      }, {
        "extension": [ {
          "url": "http://hl7.org/fhir/tools/StructureDefinition/original-resource-name",
          "valueCode": "Encounter"
        } ],
        "type": "Encounter",
        "codeFilter": [ {
          "path": "type",
          "valueSetReference": {
            "reference": "http://fhir.org/guides/cdc/opioid-cds/ValueSet/office-visit"
          }
        } ]
      }, {
        "extension": [ {
          "url": "http://hl7.org/fhir/tools/StructureDefinition/original-resource-name",
          "valueCode": "Procedure"
        } ],
        "type": "Procedure",
        "codeFilter": [ {
          "path": "code",
          "valueSetReference": {
            "reference": "http://fhir.org/guides/cdc/opioid-cds/ValueSet/opioid-misuse-assessment-procedure"
          }
        } ]
      }, {
        "extension": [ {
          "url": "http://hl7.org/fhir/tools/StructureDefinition/original-resource-name",
          "valueCode": "Encounter"
        } ],
        "type": "Encounter",
        "codeFilter": [ {
          "path": "type",
          "valueSetReference": {
            "reference": "http://fhir.org/guides/cdc/opioid-cds/ValueSet/office-visit"
          }
        } ]
      }, {
        "extension": [ {
          "url": "http://hl7.org/fhir/tools/StructureDefinition/original-resource-name",
          "valueCode": "Procedure"
        } ],
        "type": "Procedure",
        "codeFilter": [ {
          "path": "code",
          "valueSetReference": {
            "reference": "http://fhir.org/guides/cdc/opioid-cds/ValueSet/opioid-misuse-assessment-procedure"
          }
        } ]
      }, {
        "extension": [ {
          "url": "http://hl7.org/fhir/tools/StructureDefinition/original-resource-name",
          "valueCode": "Encounter"
        } ],
        "type": "Encounter",
        "codeFilter": [ {
          "path": "type",
          "valueSetReference": {
            "reference": "http://fhir.org/guides/cdc/opioid-cds/ValueSet/office-visit"
          }
        } ]
      }, {
        "extension": [ {
          "url": "http://hl7.org/fhir/tools/StructureDefinition/original-resource-name",
          "valueCode": "Procedure"
        } ],
        "type": "Procedure",
        "codeFilter": [ {
          "path": "code",
          "valueSetReference": {
            "reference": "http://fhir.org/guides/cdc/opioid-cds/ValueSet/opioid-misuse-assessment-procedure"
          }
        } ]
      }, {
        "extension": [ {
          "url": "http://hl7.org/fhir/tools/StructureDefinition/original-resource-name",
          "valueCode": "Encounter"
        } ],
        "type": "Encounter",
        "codeFilter": [ {
          "path": "type",
          "valueSetReference": {
            "reference": "http://fhir.org/guides/cdc/opioid-cds/ValueSet/office-visit"
          }
        } ]
      }, {
        "extension": [ {
          "url": "http://hl7.org/fhir/tools/StructureDefinition/original-resource-name",
          "valueCode": "Procedure"
        } ],
        "type": "Procedure",
        "codeFilter": [ {
          "path": "code",
          "valueSetReference": {
            "reference": "http://fhir.org/guides/cdc/opioid-cds/ValueSet/opioid-misuse-assessment-procedure"
          }
        } ]
      }, {
        "extension": [ {
          "url": "http://hl7.org/fhir/tools/StructureDefinition/original-resource-name",
          "valueCode": "Encounter"
        } ],
        "type": "Encounter",
        "codeFilter": [ {
          "path": "type",
          "valueSetReference": {
            "reference": "http://fhir.org/guides/cdc/opioid-cds/ValueSet/office-visit"
          }
        } ]
      }, {
        "extension": [ {
          "url": "http://hl7.org/fhir/tools/StructureDefinition/original-resource-name",
          "valueCode": "Procedure"
        } ],
        "type": "Procedure",
        "codeFilter": [ {
          "path": "code",
          "valueSetReference": {
            "reference": "http://fhir.org/guides/cdc/opioid-cds/ValueSet/opioid-misuse-assessment-procedure"
          }
        } ]
      }, {
        "extension": [ {
          "url": "http://hl7.org/fhir/tools/StructureDefinition/original-resource-name",
          "valueCode": "Encounter"
        } ],
        "type": "Encounter",
        "codeFilter": [ {
          "path": "type",
          "valueSetReference": {
            "reference": "http://fhir.org/guides/cdc/opioid-cds/ValueSet/office-visit"
          }
        } ]
      }, {
        "extension": [ {
          "url": "http://hl7.org/fhir/tools/StructureDefinition/original-resource-name",
          "valueCode": "Procedure"
        } ],
        "type": "Procedure",
        "codeFilter": [ {
          "path": "code",
          "valueSetReference": {
            "reference": "http://fhir.org/guides/cdc/opioid-cds/ValueSet/opioid-misuse-assessment-procedure"
          }
        } ]
      }, {
        "extension": [ {
          "url": "http://hl7.org/fhir/tools/StructureDefinition/original-resource-name",
          "valueCode": "Encounter"
        } ],
        "type": "Encounter",
        "codeFilter": [ {
          "path": "type",
          "valueSetReference": {
            "reference": "http://fhir.org/guides/cdc/opioid-cds/ValueSet/office-visit"
          }
        } ]
      }, {
        "extension": [ {
          "url": "http://hl7.org/fhir/tools/StructureDefinition/original-resource-name",
          "valueCode": "Procedure"
        } ],
        "type": "Procedure",
        "codeFilter": [ {
          "path": "code",
          "valueSetReference": {
            "reference": "http://fhir.org/guides/cdc/opioid-cds/ValueSet/opioid-misuse-assessment-procedure"
          }
        } ]
      }, {
        "extension": [ {
          "url": "http://hl7.org/fhir/tools/StructureDefinition/original-resource-name",
          "valueCode": "Encounter"
        } ],
        "type": "Encounter",
        "codeFilter": [ {
          "path": "type",
          "valueSetReference": {
            "reference": "http://fhir.org/guides/cdc/opioid-cds/ValueSet/office-visit"
          }
        } ]
      } ],
      "content": [ {
        "contentType": "text/cql",
        "data": ""
      } ]
    },
    "request": {
      "method": "PUT",
      "url": "Library/OpioidCDSREC07"
    }
  }, {
    "resource": {
      "resourceType": "ActivityDefinition",
      "id": "opioidcds-risk-assessment-request",
      "url": "http://fhir.org/guides/cdc/opioid-cds/ActivityDefinition/opioidcds-risk-assessment-request",
      "version": "1.2.3",
      "name": "ActivityDefinition - Recommendation #7 Risk Assessment ProcedureRequest",
      "title": "ActivityDefinition - CDC Opioid Prescribing Guideline Recommendation #7 - Risk Assessment ProcedureRequest",
      "status": "draft",
      "date": "2018-04-24T00:00:00-06:00",
      "publisher": "Centers for Disease Control and Prevention (CDC)",
      "description": "As part of the workflow for recommendation 7, it is recommended that a risk assessment be conducted if the inclusion criteria is met.",
      "purpose": "Provides dynamic risk assessment suggestion as part of recommendation 7 workflow.",
      "usage": "Used to create a risk assessment ProcedureRequest when the inclusion criteria is satisfied for recommendation 7.",
      "useContext": [ {
        "code": {
          "system": "http://hl7.org/fhir/usage-context-type",
          "code": "focus",
          "display": "Clinical Focus"
        },
        "valueCodeableConcept": {
          "coding": [ {
            "system": "http://snomed.info/sct",
            "code": "225314003",
            "display": "Risk management (procedure)"
          } ]
        }
      } ],
      "jurisdiction": [ {
        "coding": [ {
          "system": "urn:iso:std:iso:3166",
          "code": "US",
          "display": "United States of America"
        } ]
      } ],
      "topic": [ {
        "coding": [ {
          "system": "http://hl7.org/fhir/definition-topic",
          "code": "assessment",
          "display": "Assessment"
        } ],
        "text": "Opioid Prescribing"
      } ],
      "contributor": [ {
        "type": "author",
        "name": "Kensaku Kawamoto, MD, PhD, MHS"
      }, {
        "type": "author",
        "name": "Bryn Rhodes"
      }, {
        "type": "author",
        "name": "Floyd Eisenberg, MD, MPH"
      }, {
        "type": "author",
        "name": "Robert McClure, MD, MPH"
      } ],
      "copyright": "© CDC 2016+.",
      "kind": "ProcedureRequest",
      "code": {
        "coding": [ {
          "system": "http://snomed.info/sct",
          "code": "454281000124100",
          "display": "Assessment of risk for opioid abuse (procedure)"
        } ]
      }
    },
    "request": {
      "method": "PUT",
      "url": "ActivityDefinition/opioidcds-risk-assessment-request"
    }
  } ]
}