{
  "hookInstance": "a172a2ce-38e7-4a21-a411-522cf481d5d1",
  "fhirServer": "http://cqf-ruler.localhost:8080/fhir",
  "hook": "order-sign",
  "user": "Practitioner/example",
  "context": {
    "userId": "Practitioner/123",
    "patientId": "Patient/example-rec-10-no-screenings",
    "encounterId": "example-rec-10-no-screenings-pefetch",
    "draftOrders": {
      "resourceType": "Bundle",
      "entry": [
        {
          "resource": {
            "resourceType": "MedicationRequest",
            "id": "example-rec-10-no-screenings-context",
            "extension": [
              {
                "url": "http://fhir.org/guides/cdc/opioid-cds/StructureDefinition/dataDateRoller",
                "extension": [
                  {
                    "url": "dateLastUpdated",
                    "valueDateTime": "2022-04-28"
                  },
                  {
                    "url": "frequency",
                    "valueDuration": {
                      "value": 30.0,
                      "unit": "days",
                      "system": "http://unitsofmeasure.org",
                      "code": "d"
                    }
                  }
                ]
              }
            ],
            "status": "active",
            "intent": "order",
            "category": {
              "coding": [
                {
                  "system": "http://hl7.org/fhir/CodeSystem/medication-request-category",
                  "code": "community"
                }
              ]
            },
            "medicationCodeableConcept": {
              "coding": [
                {
                  "system": "http://www.nlm.nih.gov/research/umls/rxnorm",
                  "code": "197696",
                  "display": "72 HR Fentanyl 0.075 MG/HR Transdermal System"
                }
              ]
            },
            "subject": {
              "reference": "Patient/example-rec-10-no-screenings"
            },
            "context": {
              "reference": "Encounter/example-rec-10-no-screenings-context"
            },
            "authoredOn": "2022-04-28",
            "dosageInstruction": [
              {
                "timing": {
                  "repeat": {
                    "frequency": 1,
                    "period": 12.0,
                    "periodUnit": "d"
                  }
                },
                "asNeededBoolean": false,
                "doseQuantity": {
                  "value": 1.0,
                  "unit": "patch"
                }
              }
            ],
            "dispenseRequest": {
              "validityPeriod": {
                "start": "2022-04-28",
                "end": "2022-07-28"
              },
              "numberOfRepeatsAllowed": 3,
              "expectedSupplyDuration": {
                "value": 30.0,
                "unit": "days",
                "system": "http://unitsofmeasure.org",
                "code": "d"
              }
            }
          }
        }
      ]
    }
  },
  "prefetch": {
    "item1": {
      "response": {
        "status": "200 OK"
      },
      "resource": {
        "resourceType": "Patient",
        "id": "example-rec-10-no-screenings",
        "gender": "female",
        "birthDate": "1982-01-07"
      }
    },
    "item2": {
      "response": {
        "status": "200 OK"
      },
      "resource": {
        "resourceType": "MedicationRequest",
        "id": "example-rec-10-no-screenings-prefetch",
        "extension": [
          {
            "url": "http://fhir.org/guides/cdc/opioid-cds/StructureDefinition/dataDateRoller",
            "extension": [
              {
                "url": "dateLastUpdated",
                "valueDateTime": "2022-04-28"
              },
              {
                "url": "frequency",
                "valueDuration": {
                  "value": 30.0,
                  "unit": "days",
                  "system": "http://unitsofmeasure.org",
                  "code": "d"
                }
              }
            ]
          }
        ],
        "status": "active",
        "intent": "order",
        "category": {
          "coding": [
            {
              "system": "http://hl7.org/fhir/CodeSystem/medication-request-category",
              "code": "community"
            }
          ]
        },
        "medicationCodeableConcept": {
          "coding": [
            {
              "system": "http://www.nlm.nih.gov/research/umls/rxnorm",
              "code": "1049502",
              "display": "12 HR Oxycodone Hydrochloride 10 MG Extended Release Oral Tablet"
            }
          ]
        },
        "subject": {
          "reference": "Patient/example-rec-10-no-screenings"
        },
        "context": {
          "reference": "Encounter/example-rec-10-no-screenings-prefetch"
        },
        "authoredOn": "2022-01-28",
        "dosageInstruction": [
          {
            "timing": {
              "repeat": {
                "frequency": 3,
                "period": 1.0,
                "periodUnit": "d"
              }
            },
            "asNeededBoolean": false,
            "doseQuantity": {
              "value": 1.0,
              "unit": "tablet"
            }
          }
        ],
        "dispenseRequest": {
          "validityPeriod": {
            "start": "2022-01-28",
            "end": "2022-01-28"
          },
          "numberOfRepeatsAllowed": 3,
          "expectedSupplyDuration": {
            "value": 30.0,
            "unit": "days",
            "system": "http://unitsofmeasure.org",
            "code": "d"
          }
        }
      }
    },
    "item3": null,
    "item4": null,
    "item5": null,
    "item6": null,
    "item7": null,
    "item8": null,
    "item9": null,
    "item10": null,
    "item11": null,
    "item12": null,
    "item13": null,
    "item14": null,
    "item15": {
      "response": {
        "status": "200 OK"
      },
      "resource": {
        "resourceType": "Encounter",
        "id": "example-rec-10-no-screenings-prefetch",
        "extension": [
          {
            "url": "http://fhir.org/guides/cdc/opioid-cds/StructureDefinition/dataDateRoller",
            "extension": [
              {
                "url": "dateLastUpdated",
                "valueDateTime": "2022-04-28"
              },
              {
                "url": "frequency",
                "valueDuration": {
                  "value": 30.0,
                  "unit": "days",
                  "system": "http://unitsofmeasure.org",
                  "code": "d"
                }
              }
            ]
          }
        ],
        "status": "finished",
        "class": {
          "system": "http://hl7.org/fhir/v3/ActCode",
          "code": "IMP",
          "display": "inpatient encounter"
        },
        "type": [
          {
            "coding": [
              {
                "system": "http://snomed.info/sct",
                "code": "367336001",
                "display": "Chemotherapy"
              }
            ]
          }
        ],
        "subject": {
          "reference": "Patient/example-rec-10-no-screenings"
        },
        "period": {
          "start": "2022-04-28",
          "end": "2022-04-28"
        }
      }
    }
  }
}
