{
  "hookInstance": "31c74cfc-747c-4afc-82e4-bdd3b7a0a58c",
  "fhirServer": "http://cqf-ruler.localhost:8080/fhir",
  "hook": "order-sign",
  "context": {
    "userId": "Practitioner/example",
    "patientId": "Patient/example-rec-10-order-sign-2-illicit-drugs",
    "encounterId": "Encounter/example-rec-10-order-sign-2-illicit-drugs-context",
    "draftOrders": {
      "resourceType": "MedicationRequest",
      "id": "example-rec-10-order-sign-2-illicit-drugs-context",
      "extension": [
        {
          "url": "http://fhir.org/guides/cdc/opioid-cds/StructureDefinition/dataDateRoller",
          "extension": [
            {
              "url": "dateLastUpdated",
              "valueDateTime": "2022-04-28"
            },
            {
              "url": "frequency",
              "valueDuration": {
                "value": 30.0,
                "unit": "days",
                "system": "http://unitsofmeasure.org",
                "code": "d"
              }
            }
          ]
        }
      ],
      "status": "active",
      "intent": "order",
      "category": {
        "coding": [
          {
            "system": "http://terminology.hl7.org/CodeSystem/medicationrequest-category",
            "code": "community"
          }
        ]
      },
      "medicationCodeableConcept": {
        "coding": [
          {
            "system": "http://www.nlm.nih.gov/research/umls/rxnorm",
            "code": "197696",
            "display": "72 HR Fentanyl 0.075 MG/HR Transdermal System"
          }
        ]
      },
      "subject": {
        "reference": "Patient/example-rec-10-order-sign-2-illicit-drugs"
      },
      "encounter": {
        "reference": "Encounter/example-rec-10-order-sign-2-illicit-drugs-context"
      },
      "authoredOn": "2022-04-28",
      "dosageInstruction": [
        {
          "timing": {
            "repeat": {
              "frequency": 1,
              "period": 12.0,
              "periodUnit": "d"
            }
          },
          "asNeededBoolean": false,
          "doseAndRate": [
            {
              "doseQuantity": {
                "value": 1.0,
                "unit": "patch"
              }
            }
          ]
        }
      ],
      "dispenseRequest": {
        "validityPeriod": {
          "start": "2022-04-28",
          "end": "2022-07-28"
        },
        "numberOfRepeatsAllowed": 3,
        "expectedSupplyDuration": {
          "value": 30.0,
          "unit": "days",
          "system": "http://unitsofmeasure.org",
          "code": "d"
        }
      }
    }
  },
  "prefetch": {
    "item1": {
      "response": {
        "status": "200 OK"
      },
      "resource": {
        "resourceType": "Patient",
        "id": "example-rec-10-order-sign-2-illicit-drugs",
        "gender": "female",
        "birthDate": "1982-01-07"
      }
    },
    "item2": {
      "response": {
        "status": "200 OK"
      },
      "resource": {
        "resourceType": "Bundle",
        "entry": [
          {
            "resource": {
              "resourceType": "Observation",
              "id": "example-rec-10-order-sign-2-illicit-drugs-prefetch",
              "status": "final",
              "category": {
                "coding": [
                  {
                    "system": "http://hl7.org/fhir/observation-category",
                    "code": "laboratory"
                  }
                ]
              },
              "code": {
                "coding": [
                  {
                    "system": "http://loinc.org",
                    "code": "70146-6",
                    "display": "Benzoylecgonine [Mass/volume] in Urine by Screen method"
                  }
                ]
              },
              "subject": {
                "reference": "Patient/example-rec-10-order-sign-2-illicit-drugs"
              },
              "effectiveDateTime": "2021-09-22",
              "valueString": "POS",
              "interpretation": [
                {
                  "coding": [
                    {
                      "system": "http://hl7.org/fhir/v2/0078",
                      "code": "POS"
                    }
                  ]
                }
              ]
            }
          },
          {
            "resource": {
              "resourceType": "Observation",
              "id": "example-rec-10-order-sign-2-illicit-drugs-prefetch",
              "extension": [
                {
                  "url": "http://fhir.org/guides/cdc/opioid-cds/StructureDefinition/dataDateRoller",
                  "extension": [
                    {
                      "url": "dateLastUpdated",
                      "valueDateTime": "2022-04-28"
                    },
                    {
                      "url": "frequency",
                      "valueDuration": {
                        "value": 30.0,
                        "unit": "days",
                        "system": "http://unitsofmeasure.org",
                        "code": "d"
                      }
                    }
                  ]
                }
              ],
              "status": "final",
              "category": {
                "coding": [
                  {
                    "system": "http://hl7.org/fhir/observation-category",
                    "code": "laboratory"
                  }
                ]
              },
              "code": {
                "coding": [
                  {
                    "system": "http://loinc.org",
                    "version": "2.68",
                    "code": "11246-6",
                    "display": "oxyCODONE (U) [Mass/Vol]"
                  }
                ]
              },
              "subject": {
                "reference": "Patient/example-rec-10-order-sign-2-illicit--drugs"
              },
              "effectiveDateTime": "2021-09-22",
              "valueString": "NEG",
              "interpretation": [
                {
                  "coding": [
                    {
                      "system": "http://hl7.org/fhir/v2/0078",
                      "code": "NEG"
                    }
                  ]
                }
              ]
            }
          },
          {
            "resource": {
              "resourceType": "Observation",
              "id": "example-rec-10-order-sign-2-illicit-drugs-prefetch",
              "extension": [
                {
                  "url": "http://fhir.org/guides/cdc/opioid-cds/StructureDefinition/dataDateRoller",
                  "extension": [
                    {
                      "url": "dateLastUpdated",
                      "valueDateTime": "2022-04-28"
                    },
                    {
                      "url": "frequency",
                      "valueDuration": {
                        "value": 30.0,
                        "unit": "days",
                        "system": "http://unitsofmeasure.org",
                        "code": "d"
                      }
                    }
                  ]
                }
              ],
              "status": "final",
              "category": {
                "coding": [
                  {
                    "system": "http://hl7.org/fhir/observation-category",
                    "code": "laboratory"
                  }
                ]
              },
              "code": {
                "coding": [
                  {
                    "system": "http://loinc.org",
                    "code": "8237-0",
                    "display": "Phencyclidine [Presence] in Urine by SAMHSA confirm method"
                  }
                ]
              },
              "subject": {
                "reference": "Patient/example-rec-10-order-sign-2-illicit-drugs"
              },
              "effectiveDateTime": "2021-11-01",
              "valueString": "NEG",
              "interpretation": [
                {
                  "coding": [
                    {
                      "system": "http://hl7.org/fhir/v2/0078",
                      "code": "NEG"
                    }
                  ]
                }
              ]
            }
          },
          {
            "resource": {
              "resourceType": "Observation",
              "id": "example-rec-10-order-sign-2-illicit-drugs-prefetch",
              "extension": [
                {
                  "url": "http://fhir.org/guides/cdc/opioid-cds/StructureDefinition/dataDateRoller",
                  "extension": [
                    {
                      "url": "dateLastUpdated",
                      "valueDateTime": "2022-04-28"
                    },
                    {
                      "url": "frequency",
                      "valueDuration": {
                        "value": 30.0,
                        "unit": "days",
                        "system": "http://unitsofmeasure.org",
                        "code": "d"
                      }
                    }
                  ]
                }
              ],
              "status": "final",
              "category": {
                "coding": [
                  {
                    "system": "http://hl7.org/fhir/observation-category",
                    "code": "laboratory"
                  }
                ]
              },
              "code": {
                "coding": [
                  {
                    "system": "http://loinc.org",
                    "code": "8237-0",
                    "display": "Phencyclidine [Presence] in Urine by SAMHSA confirm method"
                  }
                ]
              },
              "subject": {
                "reference": "Patient/example-rec-10-order-sign-2-illicit-drugs"
              },
              "effectiveDateTime": "2021-10-23",
              "valueString": "POS",
              "interpretation": [
                {
                  "coding": [
                    {
                      "system": "http://hl7.org/fhir/v2/0078",
                      "code": "POS"
                    }
                  ]
                }
              ]
            }
          }
        ]
      }
    },
    "item3": {
      "response": {
        "status": "200 OK"
      },
      "resource": {
        "resourceType": "Encounter",
        "id": "example-rec-10-order-sign-2-illicit-drugs-prefetch",
        "extension": [
          {
            "url": "http://fhir.org/guides/cdc/opioid-cds/StructureDefinition/dataDateRoller",
            "extension": [
              {
                "url": "dateLastUpdated",
                "valueDateTime": "2022-04-28"
              },
              {
                "url": "frequency",
                "valueDuration": {
                  "value": 30.0,
                  "unit": "days",
                  "system": "http://unitsofmeasure.org",
                  "code": "d"
                }
              }
            ]
          }
        ],
        "status": "finished",
        "subject": {
          "reference": "Patient/example-rec-10-order-sign-2-illicit-drugs"
        },
        "period": {
          "start": "2022-01-28",
          "end": "2022-01-28"
        }
      }
    },
    "item4": null,
    "item5": null,
    "item6": null,
    "item7": null,
    "item8": null,
    "item9": null,
    "item10": {
      "response": {
        "status": "200 OK"
      },
      "resource": {
        "resourceType": "MedicationRequest",
        "id": "example-rec-10-order-sign-2-illicit-drugs-prefetch",
        "extension": [
          {
            "url": "http://fhir.org/guides/cdc/opioid-cds/StructureDefinition/dataDateRoller",
            "extension": [
              {
                "url": "dateLastUpdated",
                "valueDateTime": "2022-04-28"
              },
              {
                "url": "frequency",
                "valueDuration": {
                  "value": 30.0,
                  "unit": "days",
                  "system": "http://unitsofmeasure.org",
                  "code": "d"
                }
              }
            ]
          }
        ],
        "status": "active",
        "intent": "order",
        "category": {
          "coding": [
            {
              "system": "http://terminology.hl7.org/CodeSystem/medicationrequest-category",
              "code": "community"
            }
          ]
        },
        "medicationCodeableConcept": {
          "coding": [
            {
              "system": "http://www.nlm.nih.gov/research/umls/rxnorm",
              "code": "1049502",
              "display": "12 HR Oxycodone Hydrochloride 10 MG Extended Release Oral Tablet"
            }
          ]
        },
        "subject": {
          "reference": "Patient/example-rec-10-order-sign-2-illicit-drugs"
        },
        "encounter": {
          "reference": "Encounter/example-rec-10-order-sign-2-illicit-drugs-prefetch"
        },
        "authoredOn": "2022-01-28",
        "dosageInstruction": [
          {
            "timing": {
              "repeat": {
                "frequency": 3,
                "period": 1.0,
                "periodUnit": "d"
              }
            },
            "asNeededBoolean": false,
            "doseAndRate": [
              {
                "doseQuantity": {
                  "value": 1.0,
                  "unit": "tablet"
                }
              }
            ]
          }
        ],
        "dispenseRequest": {
          "validityPeriod": {
            "start": "2022-01-28",
            "end": "2022-01-28"
          },
          "numberOfRepeatsAllowed": 3,
          "expectedSupplyDuration": {
            "value": 30.0,
            "unit": "days",
            "system": "http://unitsofmeasure.org",
            "code": "d"
          }
        }
      }
    }
  }
}
