{
  "resourceType": "Bundle",
  "id": "OpioidCDSREC10PatientView-bundle",
  "type": "transaction",
  "entry": [ {
    "resource": {
      "resourceType": "PlanDefinition",
      "id": "opioidcds-10-patient-view",
      "url": "http://fhir.org/guides/cdc/opioid-cds/PlanDefinition/opioidcds-10-patient-view",
      "version": "1.2.3",
      "name": "PlanDefinition_Recommendation_10_Patient_View",
      "title": "PlanDefinition - CDC Opioid Prescribing Guideline Recommendation #10 (patient-view)",
      "type": {
        "coding": [ {
          "system": "http://hl7.org/fhir/plan-definition-type",
          "code": "eca-rule",
          "display": "ECA Rule"
        } ]
      },
      "status": "draft",
      "publisher": "Centers for Disease Control and Prevention (CDC)",
      "description": "When prescribing opioids for chronic pain, providers should use urine drug testing before starting opioid therapy and consider urine drug testing at least annually to assess for prescribed medications as well as other controlled prescription drugs and illicit drugs.",
      "purpose": "CDC’s Guideline for Prescribing Opioids for Chronic Pain is intended to improve communication between providers and patients about the risks and benefits of opioid therapy for chronic pain, improve the safety and effectiveness of pain treatment, and reduce the risks associated with long-term opioid therapy, including opioid use disorder and overdose. The Guideline is not intended for patients who are in active cancer treatment, palliative care, or end-of-life care.",
      "usage": "Providers should be aware if patients are taking other prescription drugs or illicit drugs that might increase their risk of an overdose.",
      "useContext": [ {
        "code": {
          "system": "http://hl7.org/fhir/usage-context-type",
          "code": "focus",
          "display": "Clinical Focus"
        },
        "valueCodeableConcept": {
          "coding": [ {
            "system": "http://snomed.info/sct",
            "code": "182888003",
            "display": "Medication requested (situation)"
          } ]
        }
      }, {
        "code": {
          "system": "http://hl7.org/fhir/usage-context-type",
          "code": "focus",
          "display": "Clinical Focus"
        },
        "valueCodeableConcept": {
          "coding": [ {
            "system": "http://snomed.info/sct",
            "code": "82423001",
            "display": "Chronic pain (finding)"
          } ]
        }
      } ],
      "jurisdiction": [ {
        "coding": [ {
          "system": "urn:iso:std:iso:3166",
          "code": "US",
          "display": "United States of America"
        } ]
      } ],
      "topic": [ {
        "text": "Opioid Prescribing"
      } ],
      "contributor": [ {
        "type": "author",
        "name": "Kensaku Kawamoto, MD, PhD, MHS"
      }, {
        "type": "author",
        "name": "Bryn Rhodes"
      }, {
        "type": "author",
        "name": "Floyd Eisenberg, MD, MPH"
      }, {
        "type": "author",
        "name": "Robert McClure, MD, MPH"
      } ],
      "copyright": "© CDC 2016+.",
      "library": [ {
        "reference": "Library/OpioidCDSREC10PatientView"
      } ],
      "action": [ {
        "label": "Order Urine Screening",
        "title": "Annual Urine Screening Check",
        "description": "Patient has not had a urine screening in the past 12 months",
        "documentation": [ {
          "type": "documentation",
          "display": "CDC guideline for prescribing opioids for chronic pain",
          "url": "https://www.cdc.gov/mmwr/volumes/65/rr/rr6501e1.htm?CDC_AA_refVal=https%3A%2F%2Fwww.cdc.gov%2Fmmwr%2Fvolumes%2F65%2Frr%2Frr6501e1er.htm"
        }, {
          "type": "documentation",
          "document": {
            "extension": [ {
              "url": "http://hl7.org/fhir/StructureDefinition/cqif-strengthOfRecommendation",
              "valueCodeableConcept": {
                "coding": [ {
                  "system": "http://hl7.org/fhir/recommendation-strength",
                  "code": "weak",
                  "display": "Weak"
                } ]
              }
            }, {
              "url": "http://hl7.org/fhir/StructureDefinition/cqif-qualityOfEvidence",
              "valueCodeableConcept": {
                "coding": [ {
                  "system": "http://hl7.org/fhir/evidence-quality",
                  "code": "very-low",
                  "display": "Very Low quality"
                } ]
              }
            } ]
          }
        } ],
        "triggerDefinition": [ {
          "type": "named-event",
          "eventName": "patient-view"
        } ],
        "condition": [ {
          "kind": "applicability",
          "description": "Patient has not had a urine screening in the past 12 months",
          "language": "text/cql",
          "expression": "Is Recommendation Applicable?"
        } ],
        "type": {
          "system": "http://terminology.hl7.org/CodeSystem/action-type",
          "code": "create",
          "display": "Create"
        },
        "definition": {
          "reference": "ActivityDefinition/opioidcds-urine-screening-request"
        },
        "dynamicValue": [ {
          "path": "action.description",
          "expression": "No Screening In Last 12 Months Detail"
        }, {
          "path": "action.title",
          "expression": "No Screening In Last 12 Months Summary"
        }, {
          "path": "action.extension",
          "expression": "No Screening In Last 12 Months Indicator"
        } ],
        "action": [ {
          "description": "Will perform urine screening"
        }, {
          "description": "Not for chronic pain management. Snooze 3 months"
        }, {
          "description": "N/A - see comment, Snooze 3 months"
        } ]
      } ]
    },
    "request": {
      "method": "PUT",
      "url": "PlanDefinition/opioidcds-10-patient-view"
    }
  }, {
    "resource": {
      "resourceType": "ActivityDefinition",
      "id": "opioidcds-urine-screening-request",
      "url": "http://fhir.org/guides/cdc/opioid-cds/ActivityDefinition/opioidcds-urine-screening-request",
      "version": "1.2.3",
      "name": "ActivityDefinition_Urine_Screening_ProcedureRequest",
      "title": "ActivityDefinition - Urine Screening ProcedureRequest",
      "status": "draft",
      "date": "2020-12-14",
      "publisher": "Centers for Disease Control and Prevention (CDC)",
      "description": "A ProcedureRequest for Urine drug screening.",
      "purpose": "Provides urine screening suggestion as part of opioid prescribing clinical decision support.",
      "usage": "Used to create a urine screening ProcedureRequest.",
      "useContext": [ {
        "code": {
          "system": "http://hl7.org/fhir/usage-context-type",
          "code": "focus",
          "display": "Clinical Focus"
        },
        "valueCodeableConcept": {
          "coding": [ {
            "system": "http://snomed.info/sct",
            "code": "310627008",
            "display": "Urine drug screening (procedure)"
          } ]
        }
      } ],
      "jurisdiction": [ {
        "coding": [ {
          "system": "urn:iso:std:iso:3166",
          "code": "US",
          "display": "United States of America"
        } ]
      } ],
      "topic": [ {
        "coding": [ {
          "system": "http://hl7.org/fhir/definition-topic",
          "code": "assessment",
          "display": "Assessment"
        } ],
        "text": "Opioid Prescribing"
      } ],
      "contributor": [ {
        "type": "author",
        "name": "Kensaku Kawamoto, MD, PhD, MHS"
      }, {
        "type": "author",
        "name": "Bryn Rhodes"
      }, {
        "type": "author",
        "name": "Floyd Eisenberg, MD, MPH"
      }, {
        "type": "author",
        "name": "Robert McClure, MD, MPH"
      } ],
      "copyright": "© CDC 2016+.",
      "kind": "ProcedureRequest",
      "code": {
        "coding": [ {
          "system": "http://snomed.info/sct",
          "code": "310627008",
          "display": "Urine drug screening (procedure)"
        } ]
      }
    },
    "request": {
      "method": "PUT",
      "url": "ActivityDefinition/opioidcds-urine-screening-request"
    }
  }, {
    "resource": {
      "resourceType": "Library",
      "id": "OpioidCDSREC10PatientView",
      "text": {
        "status": "generated",
        "div": "<div xmlns=\"http://www.w3.org/1999/xhtml\"><table class=\"grid dict\"><tr><th scope=\"row\"><b>Id: </b></th><td style=\"padding-left: 25px; padding-right: 25px;\">library-OpioidCDSREC10PatientView</td></tr><tr><th scope=\"row\"><b>Type: </b></th><td style=\"padding-right: 25px;\"> Logic Library </td></tr><tr><th scope=\"row\"><b>Status: </b></th><td style=\"padding-left: 25px; padding-right: 25px;\">active</td></tr><tr style=\"vertical-align: top;\"><th rowspan=\"3\" scope=\"row\"><b>Related: </b></th><td style=\"padding-left: 25px; padding-right: 25px;\"><p style=\"margin-bottom: 5px;\"><b>type: </b><span>depends-on</span></p><p style=\"margin-bottom: 5px;\"><b>Resource: </b><br/><span><span style=\"padding-left: 25px;\"><b>reference: </b><span>http://fhir.org/guides/cdc/opioid-cds/Library/FHIRHelpers</span></span></span></p></td></tr><tr style=\"vertical-align: top;\"><td style=\"padding-left: 25px; padding-right: 25px;\"><p style=\"margin-bottom: 5px;\"><b>type: </b><span>depends-on</span></p><p style=\"margin-bottom: 5px;\"><b>Resource: </b><br/><span><span style=\"padding-left: 25px;\"><b>reference: </b><span>http://fhir.org/guides/cdc/opioid-cds/Library/library-OpioidCDSCommon</span></span></span></p></td></tr><tr style=\"vertical-align: top;\"><td style=\"padding-left: 25px; padding-right: 25px;\"><p style=\"margin-bottom: 5px;\"><b>type: </b><span>depends-on</span></p><p style=\"margin-bottom: 5px;\"><b>Resource: </b><br/><span><span style=\"padding-left: 25px;\"><b>reference: </b><span>http://fhir.org/guides/cdc/opioid-cds/Library/library-OpioidCDSRoutines</span></span></span></p></td></tr><tr style=\"vertical-align: top;\"><th rowspan=\"2\" scope=\"row\"><b>Data Requirements: </b></th><td style=\"padding-left: 25px; padding-right: 25px;\"><div><p style=\"margin-bottom: 5px;\"><b>type: </b><span>Observation</span></p><p style=\"margin-bottom: 5px;\"><b>code filter:</b><br/><span style=\"padding-left: 25px;\"><b>path: </b><span>code</span></span><br/><span style=\"padding-left: 25px;\"><b>valueset: </b><span>org.hl7.fhir.dstu3.model.Reference@c8943360</span></span></p></div></td></tr><tr style=\"vertical-align: top;\"><td style=\"padding-left: 25px; padding-right: 25px;\"><div><p style=\"margin-bottom: 5px;\"><b>type: </b><span>Observation</span></p><p style=\"margin-bottom: 5px;\"><b>code filter:</b><br/><span style=\"padding-left: 25px;\"><b>path: </b><span>code</span></span><br/><span style=\"padding-left: 25px;\"><b>valueset: </b><span>org.hl7.fhir.dstu3.model.Reference@d64bad99</span></span></p></div></td></tr><tr style=\"vertical-align: top;\"><th scope=\"row\"><b>Content: </b></th><td style=\"padding-left: 25px; padding-right: 25px;\"><b>type: </b><span>text/cql</span></td></tr><tr><td colspan=\"2\" style=\"padding-left: 25px; padding-right: 25px;\"><pre><code class=\"language-cql\">library OpioidCDSREC10PatientView version '1.2.3'\n\nusing FHIR version '3.0.0'\n\ninclude FHIRHelpers version '3.0.0' called FHIRHelpers\ninclude OpioidCDSCommon version '1.2.3' called Common\ninclude OpioidCDSRoutines version '1.2.3' called Routines\n\ncode &quot;Urine Drug Screening&quot;: '310627008' from Common.SNOMED display 'Urine drug screening (procedure)'\n\n/*\n**  Recommendation #10\n**    When prescribing opioids for chronic pain, providers should use urine drug\n**    testing before starting opioid therapy and consider urine drug testing at\n**    least annually to assess for prescribed medications as well as other controlled\n**    prescription drugs and illicit drugs (recommendation category: B, evidence type: 4)\n**\n**  When\n**    Provider is prescribing an opioid analgesic with ambulatory misuse potential in the outpatient setting\n**    Prescription is for treating chronic pain.\n**    Opioid review is useful for this patient:\n**      Patient is 18 or over\n**      Patient does not have findings indicating limited life expectancy\n**      Patient does not have orders for therapies indicating end of life care\n**      Patient is not undergoing active cancer treatment:\n**        Patient has had at least 2 encounters within the past year with any diagnosis of cancer\n**    Urine drug screening has not been performed in last 12 months\n**  Then\n**    Recommend urine drug screening\n**      Will perform urine screening\n**      Not for chronic pain management, snooze 3 months\n**      N/A - see comment, snooze 3 months\n**\n*/\n\n// META: Plan Definition: http://fhir.org/guides/cdc/opioid-cds/PlanDefinition/opioid-cds-10-patient-view\n\ncontext Patient\n\ndefine &quot;Lookback Year&quot;:\n  Interval[Today() - 12 months - 1 days, Today() - 1 day]\n\ndefine &quot;Patient Is Being Prescribed Opioid Analgesic with Ambulatory Misuse Potential&quot;:\n  exists (\n    Common.&quot;Active Ambulatory Opioid Rx&quot; AmbulatoryOpioidPrescription\n      where Routines.&quot;Is Chronic Pain Prescription?&quot;(AmbulatoryOpioidPrescription)\n  )\n\ndefine &quot;Is Recommendation Applicable?&quot;:\n  &quot;Inclusion Criteria&quot;\n    and not &quot;Exclusion Criteria&quot;\n\ndefine &quot;Inclusion Criteria&quot;:\n  &quot;Patient Is Being Prescribed Opioid Analgesic with Ambulatory Misuse Potential&quot;\n    and Routines.&quot;Is Opioid Review Useful?&quot;\n    and not &quot;Patient had Urine Screening in Last 12 Months&quot;\n\ndefine &quot;Exclusion Criteria&quot;:\n  false \n\ndefine &quot;Patient had Urine Screening in Last 12 Months&quot;:\n  exists( &quot;Urine Screenings during the Last 12 Months&quot; )\n\ndefine &quot;Urine Screenings during the Last 12 Months&quot;:\n  (\n    [Observation: &quot;code&quot; in Common.&quot;Non-opioid illicit drug urine screening&quot;] IllicitDrugScreen\n      where date from IllicitDrugScreen.effective in day of &quot;Lookback Year&quot;\n        and not (IllicitDrugScreen.status.value in { 'unknown', 'entered-in-error', 'cancelled' })\n  )\n  union\n  (\n    [Observation: &quot;code&quot; in Common.&quot;Opioid drug urine screening&quot;] OpioidDrugScreen\n      where date from OpioidDrugScreen.effective in day of &quot;Lookback Year&quot;\n        and not (OpioidDrugScreen.status.value in { 'unknown', 'entered-in-error', 'cancelled' })\n  )\n\ndefine &quot;No Screening In Last 12 Months Indicator&quot;:\n  if &quot;Is Recommendation Applicable?&quot;\n    then 'warning'\n  else null\n\ndefine &quot;No Screening In Last 12 Months Summary&quot;:\n  if &quot;Is Recommendation Applicable?&quot;\n    then 'Annual Urine Screening Check'\n  else null\n\ndefine &quot;No Screening In Last 12 Months Detail&quot;:\n  if &quot;Is Recommendation Applicable?&quot;\n    then 'Patients on opioid therapy should have a urine drug test performed every 12 months.'\n  else null\n\n// Service Request - Urine Screening\ndefine &quot;Urine Drug Screening Request&quot;:\n  ProcedureRequest {\n    //identifier:,\n    definition: { FHIR.Reference { reference: FHIR.string { value: 'http://fhir.org/guides/cdc/activitydefinition/urine-screening-request' } } },\n    status: FHIR.RequestStatus { value: 'draft' },\n    intent: FHIR.RequestIntent { value: 'proposal' },\n    priority: FHIR.RequestPriority { value: 'routine' },\n    code: FHIR.CodeableConcept { coding: { ToCoding(&quot;Urine Drug Screening&quot;) } },\n    subject: FHIR.Reference { reference: FHIR.string { value: 'Patient/' + Patient.id } },\n    occurrence: FHIR.Period { start: FHIR.dateTime { value: Today() }, end: FHIR.dateTime { value: Today() + 7 days } },\n    authoredOn: FHIR.dateTime { value: Now() },\n    reasonCode: { FHIR.CodeableConcept { text: FHIR.string { value: &quot;No Screening In Last 12 Months Detail&quot; } } }\n    // doesn't really work, need a relatedArtifact here...\n    //reasonCode: { FHIR.CodeableConcept { text: FHIR.string { value: 'https://www.cdc.gov/mmwr/volumes/65/rr/rr6501e1.htm#10_When_prescribing_opioids' } } }\n  }\n\ndefine function ToCoding(code System.Code):\n  FHIR.Coding {\n    code: FHIR.code { value: code.code },\n    system: FHIR.uri { value: code.system },\n    version: FHIR.string { value: code.version },\n    display: FHIR.string { value: code.display }\n  }\n</code></pre>\n                    \n                    \n                </td>\n            </tr>\n        \n    </table>\n</div>"
      },
      "extension": [ {
        "url": "http://hl7.org/fhir/us/cqfmeasures/StructureDefinition/cqfm-softwaresystem",
        "valueReference": {
          "reference": "cqf-tooling"
        }
      } ],
      "url": "http://fhir.org/guides/cdc/opioid-cds/Library/OpioidCDSREC10PatientView",
      "version": "1.2.3",
      "name": "OpioidCDSREC10PatientView",
      "title": "Library - Opioid CDS Logic for recommendation #10 (patient-view)",
      "status": "active",
      "experimental": true,
      "type": {
        "coding": [ {
          "system": "http://terminology.hl7.org/CodeSystem/library-type",
          "code": "logic-library"
        } ]
      },
      "publisher": "Centers for Disease Control and Prevention (CDC)",
      "description": "Opioid decision support logic to evaluate whether the patient has had a urine screening in the past 12 months and provide analysis.",
      "purpose": "The purpose of this library is to determine whether the patient has had a urine screening in the past 12 months. Is so, then check the results for missing opioids that are prescribed, present opioids that aren't prescribed or present illicit drugs.",
      "usage": "This library is used to notify the prescriber/user whether the patient has had a urine screening in the past 12 months and to provide analysis if true.",
      "useContext": [ {
        "code": {
          "system": "http://hl7.org/fhir/usage-context-type",
          "code": "focus",
          "display": "Clinical Focus"
        },
        "valueCodeableConcept": {
          "coding": [ {
            "system": "http://snomed.info/sct",
            "code": "182888003",
            "display": "Medication requested (situation)"
          } ]
        }
      }, {
        "code": {
          "system": "http://hl7.org/fhir/usage-context-type",
          "code": "focus",
          "display": "Clinical Focus"
        },
        "valueCodeableConcept": {
          "coding": [ {
            "system": "http://snomed.info/sct",
            "code": "82423001",
            "display": "Chronic pain (finding)"
          } ]
        }
      } ],
      "jurisdiction": [ {
        "coding": [ {
          "system": "urn:iso:std:iso:3166",
          "code": "US",
          "display": "United States of America"
        } ]
      } ],
      "copyright": "© CDC 2016+.",
      "relatedArtifact": [ {
        "type": "documentation",
        "display": "CDC guideline for prescribing opioids for chronic pain",
        "url": "https://www.cdc.gov/mmwr/volumes/65/rr/rr6501e1.htm?CDC_AA_refVal=https%3A%2F%2Fwww.cdc.gov%2Fmmwr%2Fvolumes%2F65%2Frr%2Frr6501e1er.htm"
      } ],
      "dataRequirement": [ {
        "extension": [ {
          "url": "http://hl7.org/fhir/tools/StructureDefinition/original-resource-name",
          "valueCode": "Observation"
        } ],
        "type": "Observation",
        "codeFilter": [ {
          "path": "code",
          "valueSetReference": {
            "reference": "http://fhir.org/guides/cdc/opioid-cds/ValueSet/non-opioid-illicit-drug-urine-screening"
          }
        } ]
      }, {
        "extension": [ {
          "url": "http://hl7.org/fhir/tools/StructureDefinition/original-resource-name",
          "valueCode": "Observation"
        } ],
        "type": "Observation",
        "codeFilter": [ {
          "path": "code",
          "valueSetReference": {
            "reference": "http://fhir.org/guides/cdc/opioid-cds/ValueSet/opioid-drug-urine-screening"
          }
        } ]
      }, {
        "extension": [ {
          "url": "http://hl7.org/fhir/tools/StructureDefinition/original-resource-name",
          "valueCode": "Observation"
        } ],
        "type": "Observation",
        "codeFilter": [ {
          "path": "code",
          "valueSetReference": {
            "reference": "http://fhir.org/guides/cdc/opioid-cds/ValueSet/non-opioid-drug-urine-screening"
          }
        } ]
      }, {
        "extension": [ {
          "url": "http://hl7.org/fhir/tools/StructureDefinition/original-resource-name",
          "valueCode": "Observation"
        } ],
        "type": "Observation",
        "codeFilter": [ {
          "path": "code",
          "valueSetReference": {
            "reference": "http://fhir.org/guides/cdc/opioid-cds/ValueSet/opioid-drug-urine-screening"
          }
        } ]
      }, {
        "extension": [ {
          "url": "http://hl7.org/fhir/tools/StructureDefinition/original-resource-name",
          "valueCode": "Observation"
        } ],
        "type": "Observation",
        "codeFilter": [ {
          "path": "code",
          "valueSetReference": {
            "reference": "http://fhir.org/guides/cdc/opioid-cds/ValueSet/non-opioid-drug-urine-screening"
          }
        } ]
      }, {
        "extension": [ {
          "url": "http://hl7.org/fhir/tools/StructureDefinition/original-resource-name",
          "valueCode": "Observation"
        } ],
        "type": "Observation",
        "codeFilter": [ {
          "path": "code",
          "valueSetReference": {
            "reference": "http://fhir.org/guides/cdc/opioid-cds/ValueSet/opioid-drug-urine-screening"
          }
        } ]
      }, {
        "extension": [ {
          "url": "http://hl7.org/fhir/tools/StructureDefinition/original-resource-name",
          "valueCode": "Observation"
        } ],
        "type": "Observation",
        "codeFilter": [ {
          "path": "code",
          "valueSetReference": {
            "reference": "http://fhir.org/guides/cdc/opioid-cds/ValueSet/non-opioid-drug-urine-screening"
          }
        } ]
      }, {
        "extension": [ {
          "url": "http://hl7.org/fhir/tools/StructureDefinition/original-resource-name",
          "valueCode": "Observation"
        } ],
        "type": "Observation",
        "codeFilter": [ {
          "path": "code",
          "valueSetReference": {
            "reference": "http://fhir.org/guides/cdc/opioid-cds/ValueSet/opioid-drug-urine-screening"
          }
        } ]
      }, {
        "extension": [ {
          "url": "http://hl7.org/fhir/tools/StructureDefinition/original-resource-name",
          "valueCode": "Observation"
        } ],
        "type": "Observation",
        "codeFilter": [ {
          "path": "code",
          "valueSetReference": {
            "reference": "http://fhir.org/guides/cdc/opioid-cds/ValueSet/non-opioid-drug-urine-screening"
          }
        } ]
      }, {
        "extension": [ {
          "url": "http://hl7.org/fhir/tools/StructureDefinition/original-resource-name",
          "valueCode": "Observation"
        } ],
        "type": "Observation",
        "codeFilter": [ {
          "path": "code",
          "valueSetReference": {
            "reference": "http://fhir.org/guides/cdc/opioid-cds/ValueSet/opioid-drug-urine-screening"
          }
        } ]
      }, {
        "extension": [ {
          "url": "http://hl7.org/fhir/tools/StructureDefinition/original-resource-name",
          "valueCode": "Observation"
        } ],
        "type": "Observation",
        "codeFilter": [ {
          "path": "code",
          "valueSetReference": {
            "reference": "http://fhir.org/guides/cdc/opioid-cds/ValueSet/non-opioid-drug-urine-screening"
          }
        } ]
      }, {
        "extension": [ {
          "url": "http://hl7.org/fhir/tools/StructureDefinition/original-resource-name",
          "valueCode": "Observation"
        } ],
        "type": "Observation",
        "codeFilter": [ {
          "path": "code",
          "valueSetReference": {
            "reference": "http://fhir.org/guides/cdc/opioid-cds/ValueSet/opioid-drug-urine-screening"
          }
        } ]
      }, {
        "extension": [ {
          "url": "http://hl7.org/fhir/tools/StructureDefinition/original-resource-name",
          "valueCode": "Observation"
        } ],
        "type": "Observation",
        "codeFilter": [ {
          "path": "code",
          "valueSetReference": {
            "reference": "http://fhir.org/guides/cdc/opioid-cds/ValueSet/non-opioid-drug-urine-screening"
          }
        } ]
      }, {
        "extension": [ {
          "url": "http://hl7.org/fhir/tools/StructureDefinition/original-resource-name",
          "valueCode": "Observation"
        } ],
        "type": "Observation",
        "codeFilter": [ {
          "path": "code",
          "valueSetReference": {
            "reference": "http://fhir.org/guides/cdc/opioid-cds/ValueSet/opioid-drug-urine-screening"
          }
        } ]
      }, {
        "extension": [ {
          "url": "http://hl7.org/fhir/tools/StructureDefinition/original-resource-name",
          "valueCode": "Observation"
        } ],
        "type": "Observation",
        "codeFilter": [ {
          "path": "code",
          "valueSetReference": {
            "reference": "http://fhir.org/guides/cdc/opioid-cds/ValueSet/non-opioid-drug-urine-screening"
          }
        } ]
      }, {
        "extension": [ {
          "url": "http://hl7.org/fhir/tools/StructureDefinition/original-resource-name",
          "valueCode": "Observation"
        } ],
        "type": "Observation",
        "codeFilter": [ {
          "path": "code",
          "valueSetReference": {
            "reference": "http://fhir.org/guides/cdc/opioid-cds/ValueSet/opioid-drug-urine-screening"
          }
        } ]
      }, {
        "extension": [ {
          "url": "http://hl7.org/fhir/tools/StructureDefinition/original-resource-name",
          "valueCode": "Observation"
        } ],
        "type": "Observation",
        "codeFilter": [ {
          "path": "code",
          "valueSetReference": {
            "reference": "http://fhir.org/guides/cdc/opioid-cds/ValueSet/non-opioid-drug-urine-screening"
          }
        } ]
      }, {
        "extension": [ {
          "url": "http://hl7.org/fhir/tools/StructureDefinition/original-resource-name",
          "valueCode": "Observation"
        } ],
        "type": "Observation",
        "codeFilter": [ {
          "path": "code",
          "valueSetReference": {
            "reference": "http://fhir.org/guides/cdc/opioid-cds/ValueSet/opioid-drug-urine-screening"
          }
        } ]
      }, {
        "extension": [ {
          "url": "http://hl7.org/fhir/tools/StructureDefinition/original-resource-name",
          "valueCode": "Observation"
        } ],
        "type": "Observation",
        "codeFilter": [ {
          "path": "code",
          "valueSetReference": {
            "reference": "http://fhir.org/guides/cdc/opioid-cds/ValueSet/non-opioid-drug-urine-screening"
          }
        } ]
      }, {
        "extension": [ {
          "url": "http://hl7.org/fhir/tools/StructureDefinition/original-resource-name",
          "valueCode": "Observation"
        } ],
        "type": "Observation",
        "codeFilter": [ {
          "path": "code",
          "valueSetReference": {
            "reference": "http://fhir.org/guides/cdc/opioid-cds/ValueSet/opioid-drug-urine-screening"
          }
        } ]
      }, {
        "extension": [ {
          "url": "http://hl7.org/fhir/tools/StructureDefinition/original-resource-name",
          "valueCode": "Observation"
        } ],
        "type": "Observation",
        "codeFilter": [ {
          "path": "code",
          "valueSetReference": {
            "reference": "http://fhir.org/guides/cdc/opioid-cds/ValueSet/non-opioid-drug-urine-screening"
          }
        } ]
      }, {
        "extension": [ {
          "url": "http://hl7.org/fhir/tools/StructureDefinition/original-resource-name",
          "valueCode": "Observation"
        } ],
        "type": "Observation",
        "codeFilter": [ {
          "path": "code",
          "valueSetReference": {
            "reference": "http://fhir.org/guides/cdc/opioid-cds/ValueSet/opioid-drug-urine-screening"
          }
        } ]
      }, {
        "extension": [ {
          "url": "http://hl7.org/fhir/tools/StructureDefinition/original-resource-name",
          "valueCode": "Observation"
        } ],
        "type": "Observation",
        "codeFilter": [ {
          "path": "code",
          "valueSetReference": {
            "reference": "http://fhir.org/guides/cdc/opioid-cds/ValueSet/non-opioid-drug-urine-screening"
          }
        } ]
      }, {
        "extension": [ {
          "url": "http://hl7.org/fhir/tools/StructureDefinition/original-resource-name",
          "valueCode": "Observation"
        } ],
        "type": "Observation",
        "codeFilter": [ {
          "path": "code",
          "valueSetReference": {
            "reference": "http://fhir.org/guides/cdc/opioid-cds/ValueSet/opioid-drug-urine-screening"
          }
        } ]
      }, {
        "extension": [ {
          "url": "http://hl7.org/fhir/tools/StructureDefinition/original-resource-name",
          "valueCode": "Observation"
        } ],
        "type": "Observation",
        "codeFilter": [ {
          "path": "code",
          "valueSetReference": {
            "reference": "http://fhir.org/guides/cdc/opioid-cds/ValueSet/non-opioid-drug-urine-screening"
          }
        } ]
      }, {
        "extension": [ {
          "url": "http://hl7.org/fhir/tools/StructureDefinition/original-resource-name",
          "valueCode": "Observation"
        } ],
        "type": "Observation",
        "codeFilter": [ {
          "path": "code",
          "valueSetReference": {
            "reference": "http://fhir.org/guides/cdc/opioid-cds/ValueSet/opioid-drug-urine-screening"
          }
        } ]
      }, {
        "extension": [ {
          "url": "http://hl7.org/fhir/tools/StructureDefinition/original-resource-name",
          "valueCode": "Observation"
        } ],
        "type": "Observation",
        "codeFilter": [ {
          "path": "code",
          "valueSetReference": {
            "reference": "http://fhir.org/guides/cdc/opioid-cds/ValueSet/non-opioid-drug-urine-screening"
          }
        } ]
      }, {
        "extension": [ {
          "url": "http://hl7.org/fhir/tools/StructureDefinition/original-resource-name",
          "valueCode": "Observation"
        } ],
        "type": "Observation",
        "codeFilter": [ {
          "path": "code",
          "valueSetReference": {
            "reference": "http://fhir.org/guides/cdc/opioid-cds/ValueSet/opioid-drug-urine-screening"
          }
        } ]
      }, {
        "extension": [ {
          "url": "http://hl7.org/fhir/tools/StructureDefinition/original-resource-name",
          "valueCode": "Observation"
        } ],
        "type": "Observation",
        "codeFilter": [ {
          "path": "code",
          "valueSetReference": {
            "reference": "http://fhir.org/guides/cdc/opioid-cds/ValueSet/non-opioid-drug-urine-screening"
          }
        } ]
      }, {
        "extension": [ {
          "url": "http://hl7.org/fhir/tools/StructureDefinition/original-resource-name",
          "valueCode": "Observation"
        } ],
        "type": "Observation",
        "codeFilter": [ {
          "path": "code",
          "valueSetReference": {
            "reference": "http://fhir.org/guides/cdc/opioid-cds/ValueSet/opioid-drug-urine-screening"
          }
        } ]
      }, {
        "extension": [ {
          "url": "http://hl7.org/fhir/tools/StructureDefinition/original-resource-name",
          "valueCode": "Observation"
        } ],
        "type": "Observation",
        "codeFilter": [ {
          "path": "code",
          "valueSetReference": {
            "reference": "http://fhir.org/guides/cdc/opioid-cds/ValueSet/non-opioid-drug-urine-screening"
          }
        } ]
      }, {
        "extension": [ {
          "url": "http://hl7.org/fhir/tools/StructureDefinition/original-resource-name",
          "valueCode": "Observation"
        } ],
        "type": "Observation",
        "codeFilter": [ {
          "path": "code",
          "valueSetReference": {
            "reference": "http://fhir.org/guides/cdc/opioid-cds/ValueSet/opioid-drug-urine-screening"
          }
        } ]
      }, {
        "extension": [ {
          "url": "http://hl7.org/fhir/tools/StructureDefinition/original-resource-name",
          "valueCode": "Observation"
        } ],
        "type": "Observation",
        "codeFilter": [ {
          "path": "code",
          "valueSetReference": {
            "reference": "http://fhir.org/guides/cdc/opioid-cds/ValueSet/non-opioid-drug-urine-screening"
          }
        } ]
      }, {
        "extension": [ {
          "url": "http://hl7.org/fhir/tools/StructureDefinition/original-resource-name",
          "valueCode": "Observation"
        } ],
        "type": "Observation",
        "codeFilter": [ {
          "path": "code",
          "valueSetReference": {
            "reference": "http://fhir.org/guides/cdc/opioid-cds/ValueSet/opioid-drug-urine-screening"
          }
        } ]
      }, {
        "extension": [ {
          "url": "http://hl7.org/fhir/tools/StructureDefinition/original-resource-name",
          "valueCode": "Observation"
        } ],
        "type": "Observation",
        "codeFilter": [ {
          "path": "code",
          "valueSetReference": {
            "reference": "http://fhir.org/guides/cdc/opioid-cds/ValueSet/non-opioid-drug-urine-screening"
          }
        } ]
      }, {
        "extension": [ {
          "url": "http://hl7.org/fhir/tools/StructureDefinition/original-resource-name",
          "valueCode": "Observation"
        } ],
        "type": "Observation",
        "codeFilter": [ {
          "path": "code",
          "valueSetReference": {
            "reference": "http://fhir.org/guides/cdc/opioid-cds/ValueSet/opioid-drug-urine-screening"
          }
        } ]
      }, {
        "extension": [ {
          "url": "http://hl7.org/fhir/tools/StructureDefinition/original-resource-name",
          "valueCode": "Observation"
        } ],
        "type": "Observation",
        "codeFilter": [ {
          "path": "code",
          "valueSetReference": {
            "reference": "http://fhir.org/guides/cdc/opioid-cds/ValueSet/non-opioid-drug-urine-screening"
          }
        } ]
      }, {
        "extension": [ {
          "url": "http://hl7.org/fhir/tools/StructureDefinition/original-resource-name",
          "valueCode": "Observation"
        } ],
        "type": "Observation",
        "codeFilter": [ {
          "path": "code",
          "valueSetReference": {
            "reference": "http://fhir.org/guides/cdc/opioid-cds/ValueSet/opioid-drug-urine-screening"
          }
        } ]
      }, {
        "extension": [ {
          "url": "http://hl7.org/fhir/tools/StructureDefinition/original-resource-name",
          "valueCode": "Observation"
        } ],
        "type": "Observation",
        "codeFilter": [ {
          "path": "code",
          "valueSetReference": {
            "reference": "http://fhir.org/guides/cdc/opioid-cds/ValueSet/non-opioid-drug-urine-screening"
          }
        } ]
      }, {
        "extension": [ {
          "url": "http://hl7.org/fhir/tools/StructureDefinition/original-resource-name",
          "valueCode": "Observation"
        } ],
        "type": "Observation",
        "codeFilter": [ {
          "path": "code",
          "valueSetReference": {
            "reference": "http://fhir.org/guides/cdc/opioid-cds/ValueSet/opioid-drug-urine-screening"
          }
        } ]
      }, {
        "extension": [ {
          "url": "http://hl7.org/fhir/tools/StructureDefinition/original-resource-name",
          "valueCode": "Observation"
        } ],
        "type": "Observation",
        "codeFilter": [ {
          "path": "code",
          "valueSetReference": {
            "reference": "http://fhir.org/guides/cdc/opioid-cds/ValueSet/non-opioid-drug-urine-screening"
          }
        } ]
      }, {
        "extension": [ {
          "url": "http://hl7.org/fhir/tools/StructureDefinition/original-resource-name",
          "valueCode": "Observation"
        } ],
        "type": "Observation",
        "codeFilter": [ {
          "path": "code",
          "valueSetReference": {
            "reference": "http://fhir.org/guides/cdc/opioid-cds/ValueSet/opioid-drug-urine-screening"
          }
        } ]
      }, {
        "extension": [ {
          "url": "http://hl7.org/fhir/tools/StructureDefinition/original-resource-name",
          "valueCode": "Observation"
        } ],
        "type": "Observation",
        "codeFilter": [ {
          "path": "code",
          "valueSetReference": {
            "reference": "http://fhir.org/guides/cdc/opioid-cds/ValueSet/non-opioid-drug-urine-screening"
          }
        } ]
      }, {
        "extension": [ {
          "url": "http://hl7.org/fhir/tools/StructureDefinition/original-resource-name",
          "valueCode": "Observation"
        } ],
        "type": "Observation",
        "codeFilter": [ {
          "path": "code",
          "valueSetReference": {
            "reference": "http://fhir.org/guides/cdc/opioid-cds/ValueSet/opioid-drug-urine-screening"
          }
        } ]
      }, {
        "extension": [ {
          "url": "http://hl7.org/fhir/tools/StructureDefinition/original-resource-name",
          "valueCode": "Observation"
        } ],
        "type": "Observation",
        "codeFilter": [ {
          "path": "code",
          "valueSetReference": {
            "reference": "http://fhir.org/guides/cdc/opioid-cds/ValueSet/non-opioid-drug-urine-screening"
          }
        } ]
      }, {
        "extension": [ {
          "url": "http://hl7.org/fhir/tools/StructureDefinition/original-resource-name",
          "valueCode": "Observation"
        } ],
        "type": "Observation",
        "codeFilter": [ {
          "path": "code",
          "valueSetReference": {
            "reference": "http://fhir.org/guides/cdc/opioid-cds/ValueSet/opioid-drug-urine-screening"
          }
        } ]
      } ],
      "content": [ {
        "contentType": "text/cql",
        "data": ""
      } ]
    },
    "request": {
      "method": "PUT",
      "url": "Library/OpioidCDSREC10PatientView"
    }
  } ]
}