{
  "hookInstance": "3078316d-e23f-4094-aec6-a6094ad29204",
  "fhirServer": "http://cqf-ruler.localhost:8080/fhir",
  "hook": "patient-view",
  "context": {
    "user": "Practitioner/example",
    "patientId": "Patient/example-rec-11-patient-view-opioid-trigger-with-benzo",
    "encounterId": "Encounter/example-rec-11-patient-view-opioid-trigger-with-benzo-context"
  },
  "prefetch": {
    "item1": {
      "response": {
        "status": "200 OK"
      },
      "resource": {
        "resourceType": "Patient",
        "id": "example-rec-11-patient-view-opioid-trigger-with-benzo",
        "gender": "female",
        "birthDate": "1982-01-07"
      }
    },
    "item2": {
      "response": {
        "status": "200 OK"
      },
      "resource": {
        "resourceType": "Bundle",
        "type": "searchset",
        "entry": [
          {
            "resource": {
              "resourceType": "MedicationRequest",
              "id": "example-rec-11-patient-view-opioid-trigger-with-benzo-prefetch",
              "extension": [
                {
                  "url": "http://fhir.org/guides/cdc/opioid-cds/StructureDefinition/dataDateRoller",
                  "extension": [
                    {
                      "url": "dateLastUpdated",
                      "valueDateTime": "2022-04-28"
                    },
                    {
                      "url": "frequency",
                      "valueDuration": {
                        "value": 30.0,
                        "unit": "days",
                        "system": "http://unitsofmeasure.org",
                        "code": "d"
                      }
                    }
                  ]
                }
              ],
              "status": "active",
              "intent": "order",
              "category": {
                "coding": [
                  {
                    "system": "http://hl7.org/fhir/medication-request-category",
                    "code": "community"
                  }
                ]
              },
              "medicationCodeableConcept": {
                "coding": [
                  {
                    "system": "http://www.nlm.nih.gov/research/umls/rxnorm",
                    "code": "1298088",
                    "display": "Flurazepam Hydrochloride 15 MG Oral Capsule"
                  }
                ]
              },
              "subject": {
                "reference": "Patient/example-rec-11-patient-view-opioid-trigger-with-benzo"
              },
              "context": {
                "reference": "Encounter/example-rec-11-patient-view-opioid-trigger-with-benzo-prefetch"
              },
              "authoredOn": "2022-03-31",
              "dosageInstruction": [
                {
                  "timing": {
                    "repeat": {
                      "frequency": 1,
                      "period": 1.0,
                      "periodUnit": "d"
                    }
                  },
                  "asNeededBoolean": false,
                  "doseQuantity": {
                    "value": 1.0,
                    "unit": "capsule"
                  }
                }
              ],
              "dispenseRequest": {
                "validityPeriod": {
                  "start": "2022-03-31",
                  "end": "2022-07-28"
                },
                "numberOfRepeatsAllowed": 3,
                "expectedSupplyDuration": {
                  "value": 30.0,
                  "unit": "days",
                  "system": "http://unitsofmeasure.org",
                  "code": "d"
                }
              }
            }
          },
          {
            "resource": {
              "resourceType": "MedicationRequest",
              "id": "example-rec-11-patient-view-opioid-trigger-with-benzo-context",
              "extension": [
                {
                  "url": "http://fhir.org/guides/cdc/opioid-cds/StructureDefinition/dataDateRoller",
                  "extension": [
                    {
                      "url": "dateLastUpdated",
                      "valueDateTime": "2022-04-28"
                    },
                    {
                      "url": "frequency",
                      "valueDuration": {
                        "value": 30.0,
                        "unit": "days",
                        "system": "http://unitsofmeasure.org",
                        "code": "d"
                      }
                    }
                  ]
                }
              ],
              "status": "active",
              "intent": "order",
              "category": {
                "coding": [
                  {
                    "system": "http://hl7.org/fhir/medication-request-category",
                    "code": "community"
                  }
                ]
              },
              "medicationCodeableConcept": {
                "coding": [
                  {
                    "system": "http://www.nlm.nih.gov/research/umls/rxnorm",
                    "code": "1049502",
                    "display": "12 HR Oxycodone Hydrochloride 10 MG Extended Release Oral Tablet"
                  }
                ]
              },
              "subject": {
                "reference": "example-rec-11-patient-view-opioid-trigger-with-benzo-context"
              },
              "context": {
                "reference": "Encounter/example-rec-11-patient-view-opioid-trigger-with-benzo-context"
              },
              "authoredOn": "2022-04-28",
              "dosageInstruction": [
                {
                  "timing": {
                    "repeat": {
                      "frequency": 1,
                      "period": 1.0,
                      "periodUnit": "d"
                    }
                  },
                  "asNeededBoolean": false,
                  "doseQuantity": {
                    "value": 1.0,
                    "unit": "tablet",
                    "system": "http://hl7.org/fhir/v3/orderableDrugForm",
                    "code": "TAB"
                  }
                }
              ],
              "dispenseRequest": {
                "validityPeriod": {
                  "start": "2022-04-28",
                  "end": "2022-07-28"
                },
                "numberOfRepeatsAllowed": 3,
                "expectedSupplyDuration": {
                  "value": 30.0,
                  "unit": "days",
                  "system": "http://unitsofmeasure.org",
                  "code": "d"
                }
              }
            }
          }
        ]
      }
    }
  }
}
