{
  "hookInstance": "259cf767-4b52-4e14-a741-04da147a430f",
  "fhirServer": "http://localhost:8080/cqf-ruler-dstu3/fhir",
  "hook": "patient-view",
  "applyCql": true,
  "context": {
    "user": "Practitioner/example",
    "patientId": "Patient/example-rec-11-patient-view-benzo-trigger-without-opioid",
    "encounterId": "Encounter/example-rec-11-patient-view-benzo-trigger-without-opioid-context"
  },
  "prefetch": {
    "item1": {
      "response": {
        "status": "200 OK"
      },
      "resource": {
        "resourceType": "Patient",
        "id": "example-rec-11-patient-view-benzo-trigger-without-opioid",
        "gender": "female",
        "birthDate": "1982-01-07"
      }
    },
    "item2": {
      "response": {
        "status": "200 OK"
      },
      "resource": {
        "resourceType": "MedicationRequest",
        "id": "example-rec-11-patient-view-benzo-trigger-without-opioid-context",
        "status": "active",
        "intent": "order",
        "category": {
          "coding": [
            {
              "system": "http://hl7.org/fhir/CodeSystem/medication-request-category",
              "code": "community"
            }
          ]
        },
        "medicationCodeableConcept": {
          "coding": [
            {
              "system": "http://www.nlm.nih.gov/research/umls/CodeSystem/rxnorm",
              "code": "1298088",
              "display": "Flurazepam Hydrochloride 15 MG Oral Capsule"
            }
          ]
        },
        "subject": {
          "reference": "Patient/example-rec-11-patient-view-benzo-trigger-without-opioid"
        },
        "context": {
          "reference": "Encounter/example-rec-11-patient-view-benzo-trigger-without-opioid-context"
        },
        "_authoredOn": {
          "extension": [
            {
              "url": "http://hl7.org/fhir/StructureDefinition/cqif-cqlExpression",
              "valueString": "Today()"
            }
          ]
        },
        "dosageInstruction": [
          {
            "timing": {
              "repeat": {
                "frequency": 1,
                "period": 1.0,
                "periodUnit": "d"
              }
            },
            "asNeededBoolean": false,
            "doseQuantity": {
              "value": 1.0,
              "unit": "capsule"
            }
          }
        ],
        "dispenseRequest": {
          "validityPeriod": {
            "extension": [
              {
                "url": "http://hl7.org/fhir/StructureDefinition/cqif-cqlExpression",
                "valueString": "FHIR.Period { start: FHIR.dateTime { value: Today() }, end: FHIR.dateTime { value: Today() + 3 months } }"
              }
            ]
          },
          "numberOfRepeatsAllowed": 3,
          "expectedSupplyDuration": {
            "value": 30.0,
            "unit": "days",
            "system": "http://unitsofmeasure.org",
            "code": "d"
          }
        }
      }
    },
    "item3": null
  }
}
