{
  "hookInstance": "307046e0-c0b6-470f-993d-34b7f66e5352",
  "fhirServer": "http://localhost:8080/cqf-ruler/baseDstu2",
  "hook": "patient-view",
  "user": "Practitioner/example",
  "context": {
    "patientId": "patient-rec-11-concurrent-patient-view",
    "encounterId": "encounter-benzo-rec-11-concurrent-patient-view"
  },
  "prefetch": {
    "item2": {
      "response": {
        "status": "200 OK"
      },
      "resource": {
        "resourceType": "Bundle",
        "entry": [
          {
            "resource": {
              "resourceType": "MedicationOrder",
              "id": "order-benzo-rec-11-concurrent-patient-view",
              "dateWritten": "2018-12-21",
              "status": "active",
              "patient": {
                "reference": "Patient/patient-rec-11-concurrent-patient-view"
              },
              "encounter": {
                "reference": "Encounter/encounter-benzo-rec-11-concurrent-patient-view"
              },
              "medicationCodeableConcept": {
                "coding": [
                  {
                    "system": "http://www.nlm.nih.gov/research/umls/rxnorm",
                    "code": "1298088",
                    "display": "Flurazepam Hydrochloride 15 MG Oral Capsule"
                  }
                ]
              },
              "dosageInstruction": [
                {
                  "timing": {
                    "repeat": {
                      "frequency": 1,
                      "period": 1.0,
                      "periodUnits": "d"
                    }
                  },
                  "asNeededBoolean": false,
                  "doseQuantity": {
                    "value": 1.0,
                    "unit": "capsule"
                  }
                }
              ],
              "dispenseRequest": {
                "validityPeriod": {
                  "start": "2018-12-21",
                  "end": "2019-03-21"
                },
                "numberOfRepeatsAllowed": 3,
                "expectedSupplyDuration": {
                  "value": 30.0,
                  "unit": "d"
                }
              }
            }
          },
          {
            "resource": {
              "resourceType": "MedicationOrder",
              "id": "order-opioid-rec-11-concurrent-patient-view",
              "dateWritten": "2019-01-22",
              "status": "active",
              "patient": {
                "reference": "Patient/patient-rec-11-concurrent-patient-view"
              },
              "encounter": {
                "reference": "Encounter/encounter-opioid-rec-11-concurrent-patient-view"
              },
              "medicationCodeableConcept": {
                "coding": [
                  {
                    "system": "http://www.nlm.nih.gov/research/umls/rxnorm",
                    "code": "1049502",
                    "display": "12 HR Oxycodone Hydrochloride 10 MG Extended Release Oral Tablet"
                  }
                ]
              },
              "dosageInstruction": [
                {
                  "timing": {
                    "repeat": {
                      "frequency": 3,
                      "period": 1.0,
                      "periodUnits": "d"
                    }
                  },
                  "asNeededBoolean": false,
                  "doseQuantity": {
                    "value": 1.0,
                    "unit": "tablet"
                  }
                }
              ],
              "dispenseRequest": {
                "validityPeriod": {
                  "start": "2019-01-22",
                  "end": "2019-05-19"
                },
                "numberOfRepeatsAllowed": 3,
                "expectedSupplyDuration": {
                  "value": 30.0,
                  "unit": "d"
                }
              }
            }
          }
        ]
      }
    },
    "item1": {
      "response": {
        "status": "200 OK"
      },
      "resource": {
        "resourceType": "Patient",
        "id": "patient-rec-11-concurrent-patient-view",
        "gender": "female",
        "birthDate": "1982-01-07"
      }
    },
    "item3": {
      "response": {
        "status": "200 OK"
      },
      "resource": {
        "resourceType": "Bundle",
        "entry": [
          {
            "resource": {
              "resourceType": "Encounter",
              "id": "encounter-benzo-rec-11-concurrent-patient-view",
              "status": "finished",
              "patient": {
                "reference": "Patient/patient-rec-11-concurrent-patient-view"
              },
              "period": {
                "start": "2018-12-21",
                "end": "2018-12-21"
              }
            }
          },
          {
            "resource": {
              "resourceType": "Encounter",
              "id": "encounter-opioid-rec-11-concurrent-patient-view",
              "status": "finished",
              "patient": {
                "reference": "Patient/patient-rec-11-concurrent-patient-view"
              },
              "period": {
                "start": "2019-01-22",
                "end": "2019-01-22"
              }
            }
          }
        ]
      }
    }
  }
}
