{
  "hookInstance": "3078316d-e23f-4094-aec6-a6094ad29204",
  "fhirServer": "http://localhost:8080/cqf-ruler-dstu3/fhir",
  "hook": "patient-view",
  "applyCql": true,
  "context": {
    "user": "Practitioner/example",
    "patientId": "Patient/example-rec-11-patient-view-opioid-trigger-with-benzo",
    "encounterId": "Encounter/example-rec-11-patient-view-opioid-trigger-with-benzo-context"
  },
  "prefetch": {
    "item1": {
      "response": {
        "status": "200 OK"
      },
      "resource": {
        "resourceType": "Patient",
        "id": "example-rec-11-patient-view-opioid-trigger-with-benzo",
        "gender": "female",
        "birthDate": "1982-01-07"
      }
    },
    "item2": {
      "response": {
        "status": "200 OK"
      },
      "resource": {
        "resourceType": "Bundle",
        "type": "searchset",
        "entry": [
          {
            "resource": {
              "resourceType": "MedicationRequest",
              "id": "example-rec-11-patient-view-opioid-trigger-with-benzo-prefetch",
              "status": "active",
              "intent": "order",
              "category": {
                "coding": [
                  {
                    "system": "http://hl7.org/fhir/CodeSystem/medication-request-category",
                    "code": "community"
                  }
                ]
              },
              "medicationCodeableConcept": {
                "coding": [
                  {
                    "system": "http://www.nlm.nih.gov/research/umls/rxnorm",
                    "code": "1298088",
                    "display": "Flurazepam Hydrochloride 15 MG Oral Capsule"
                  }
                ]
              },
              "subject": {
                "reference": "Patient/example-rec-11-patient-view-opioid-trigger-with-benzo"
              },
              "context": {
                "reference": "Encounter/example-rec-11-patient-view-opioid-trigger-with-benzo-prefetch"
              },
              "_authoredOn": {
                "extension": [
                  {
                    "url": "http://hl7.org/fhir/StructureDefinition/cqif-cqlExpression",
                    "valueString": "Today() - 28 days"
                  }
                ]
              },
              "dosageInstruction": [
                {
                  "timing": {
                    "repeat": {
                      "frequency": 1,
                      "period": 1.0,
                      "periodUnit": "d"
                    }
                  },
                  "asNeededBoolean": false,
                  "doseQuantity": {
                    "value": 1.0,
                    "unit": "capsule"
                  }
                }
              ],
              "dispenseRequest": {
                "validityPeriod": {
                  "extension": [
                    {
                      "url": "http://hl7.org/fhir/StructureDefinition/cqif-cqlExpression",
                      "valueString": "FHIR.Period { start: FHIR.dateTime { value: Today() - 28 days }, end: FHIR.dateTime { value: Today() + 3 months } }"
                    }
                  ]
                },
                "numberOfRepeatsAllowed": 3,
                "expectedSupplyDuration": {
                  "value": 30.0,
                  "unit": "days",
                  "system": "http://unitsofmeasure.org",
                  "code": "d"
                }
              }
            }
          },
          {
            "resource": {
              "resourceType": "MedicationRequest",
              "id": "example-rec-11-patient-view-opioid-trigger-with-benzo-context",
              "status": "active",
              "intent": "order",
              "category": {
                "coding": [
                  {
                    "system": "http://hl7.org/fhir/CodeSystem/medication-request-category",
                    "code": "community"
                  }
                ]
              },
              "medicationCodeableConcept": {
                "coding": [
                  {
                    "system": "http://www.nlm.nih.gov/research/umls/rxnorm",
                    "code": "1049502",
                    "display": "12 HR Oxycodone Hydrochloride 10 MG Extended Release Oral Tablet"
                  }
                ]
              },
              "subject": {
                "reference": "example-rec-11-patient-view-opioid-trigger-with-benzo-context"
              },
              "context": {
                "reference": "Encounter/example-rec-11-patient-view-opioid-trigger-with-benzo-context"
              },
              "_authoredOn": {
                "extension": [
                  {
                    "url": "http://hl7.org/fhir/StructureDefinition/cqif-cqlExpression",
                    "valueString": "Today()"
                  }
                ]
              },
              "dosageInstruction": [
                {
                  "timing": {
                    "repeat": {
                      "frequency": 1,
                      "period": 1.0,
                      "periodUnit": "d"
                    }
                  },
                  "asNeededBoolean": false,
                  "doseQuantity": {
                    "value": 1.0,
                    "unit": "tablet",
      				      "system": "http://hl7.org/fhir/v3/orderableDrugForm",
      				      "code": "TAB"
                  }
                }
              ],
              "dispenseRequest": {
                "validityPeriod": {
                  "extension": [
                    {
                      "url": "http://hl7.org/fhir/StructureDefinition/cqif-cqlExpression",
                      "valueString": "FHIR.Period { start: FHIR.dateTime { value: Today() }, end: FHIR.dateTime { value: Today() + 3 months } }"
                    }
                  ]
                },
                "numberOfRepeatsAllowed": 3,
                "expectedSupplyDuration": {
                  "value": 30.0,
                  "unit": "days",
                  "system": "http://unitsofmeasure.org",
                  "code": "d"
                }
              }
            }
          }
        ]
      }
    }
  }
}
