{
  "hookInstance": "514b3e2f-2daf-4045-9c56-ad891fc6e233",
  "fhirServer": "http://localhost:8080/cqf-ruler-r4/fhir",
  "hook": "order-select",
  "applyCql": true,
  "context": {
    "userId": "Practitioner/example",
    "patientId": "Patient/example-rec-10-end-of-life-med-exclusion",
    "encounterId": "Encounter/example-rec-10-end-of-life-med-exclusion-context",
    "selections": [ "MedicationRequest/example-rec-10-end-of-life-med-exclusion-context" ],
    "draftOrders":
      {
        "resourceType": "MedicationRequest",
        "id": "example-rec-10-end-of-life-med-exclusion-context",
        "status": "active",
        "intent": "order",
        "category": [
            {
              "coding": [
                {
                  "system": "http://terminology.hl7.org/CodeSystem/medicationrequest-category",
                  "code": "community"
                }
              ]
            }
        ],
        "medicationCodeableConcept": {
          "coding": [
            {
              "system": "http://www.nlm.nih.gov/research/umls/rxnorm",
              "code": "1012727",
              "display": "Carbinoxamine maleate 0.4 MG/ML / Hydrocodone Bitartrate 1 MG/ML / Pseudoephedrine Hydrochloride 6 MG/ML Oral Solution"
            }
          ]
        },
        "subject": {
          "reference": "Patient/example-rec-10-end-of-life-med-exclusion"
        },
        "encounter": {
          "reference": "Encounter/example-rec-10-end-of-life-med-exclusion-context"
        },
        "_authoredOn": {
          "extension": [
            {
              "url": "http://hl7.org/fhir/StructureDefinition/cqf-expression",
              "valueExpression": {
                "language": "text/cql",
                "expression": "Today()"
              }
            }
          ]
        },
        "dosageInstruction": [
          {
            "timing": {
              "repeat": {
                "frequency": 1,
                "period": 12.0,
                "periodUnit": "d"
              }
            },
            "asNeededBoolean": false,
            "doseAndRate": [
                {
                    "doseQuantity": {
                      "value": 5.0,
                      "unit": "mL"
                    }
                }
            ]
          }
        ],
        "dispenseRequest": {
          "_validityPeriod": {
            "extension": [
              {
                "url": "http://hl7.org/fhir/StructureDefinition/cqf-expression",
                "valueExpression": {
                  "language": "text/cql",
                  "expression": "FHIR.Period { start: FHIR.dateTime { value: Today() }, end: FHIR.dateTime { value: Today() + 3 months } }"
                }
              }
            ]
          },
          "numberOfRepeatsAllowed": 3,
          "expectedSupplyDuration": {
            "value": 30.0,
            "unit": "days",
            "system": "http://unitsofmeasure.org",
            "code": "d"
          }
        }
      }
  },
  "prefetch": {
    "item1": {
      "response": {
        "status": "200 OK"
      },
      "resource": {
        "resourceType": "Patient",
        "id": "example-rec-10-end-of-life-med-exclusion",
        "gender": "female",
        "birthDate": "1982-01-07"
      }
    },
    "item2": null,
    "item3": null,
    "item4": null,
    "item5": null,
    "item6": null,
    "item7": null,
    "item8": null,
    "item9": null
  }
}
