{
  "hookInstance": "4676f1ae-65c0-4935-9833-35a123e4767a",
  "fhirServer": "http://localhost:8080/cqf-ruler-r4/fhir",
  "hook": "order-select",
  "applyCql": true,
  "context": {
    "userId": "Practitioner/example",
    "patientId": "Patient/example-rec-05-mme-greater-than-fifty",
    "encounterId": "Encounter/example-rec-05-mme-greater-than-fifty-context",
    "selections": [ "MedicationRequest/example-rec-05-mme-greater-than-fifty-context" ],
    "draftOrders":
      {
        "resourceType": "MedicationRequest",
        "id": "example-rec-05-mme-greater-than-fifty-context",
        "status": "active",
        "intent": "order",
        "category": {
          "coding": [
            {
              "system": "http://terminology.hl7.org/CodeSystem/medicationrequest-category",
              "code": "community"
            }
          ]
        },
        "medicationCodeableConcept": {
          "coding": [
            {
              "system": "http://www.nlm.nih.gov/research/umls/rxnorm",
              "code": "197696",
              "display": "72 HR Fentanyl 0.075 MG/HR Transdermal System"
            }
          ]
        },
        "subject": {
          "reference": "Patient/example-rec-05-mme-greater-than-fifty"
        },
        "encounter": {
          "reference": "Encounter/example-rec-05-mme-greater-than-fifty-context"
        },
        "_authoredOn": {
          "extension": [
            {
              "url": "http://hl7.org/fhir/StructureDefinition/cqf-expression",
              "valueExpression": {
                "language": "text/cql",
                "expression": "Today()"
              }
            }
          ]
        },
        "dosageInstruction": [
          {
            "timing": {
              "repeat": {
                "frequency": 1,
                "period": 3.0,
                "periodUnit": "d"
              }
            },
            "asNeededBoolean": false,
            "doseQuantity": {
              "value": 1.0,
              "unit": "patch"
            }
          }
        ],
        "dispenseRequest": {
          "_validityPeriod": {
            "extension": [
              {
                "url": "http://hl7.org/fhir/StructureDefinition/cqf-expression",
                "valueExpression": {
                  "language": "text/cql",
                  "expression": "FHIR.Period { start: FHIR.dateTime { value: Today() }, end: FHIR.dateTime { value: Today() + 6 months } }"
                }
              }
            ]
          },
          "numberOfRepeatsAllowed": 3,
          "expectedSupplyDuration": {
            "value": 30,
            "unit": "days",
            "system": "http://unitsofmeasure.org",
            "code": "d"
          }
        }
      }
  },
  "prefetch": {
    "item1": null,
    "item2": null,
    "item3": {
      "response": {
        "status": "200 OK"
      },
      "resource": {
        "resourceType": "Patient",
        "id": "example-rec-05-mme-greater-than-fifty",
        "gender": "female",
        "birthDate": "1982-01-07"
      }
    },
    "item4": null,
    "item5": null,
    "item6": null,
    "item7": null,
    "item8": null,
    "item9": null,
    "item10": null,
    "item11": null,
    "item12": null,
    "item13": null
  }
}
