{
  "hookInstance": "b266185d-c26a-40dd-a024-70b5b6222170",
  "fhirServer": "http://localhost:8080/cqf-ruler-dstu3/fhir",
  "hook": "order-select",
  "applyCql": true,
  "context": {
    "user": "Practitioner/example",
    "patientId": "Patient/example-rec-11-benzo-trigger-with-opioid",
    "encounterId": "Encounter/example-rec-11-benzo-trigger-with-opioid-context",
    "selections": [ "MedicationRequest/example-rec-11-benzo-trigger-with-opioid-context" ]
  },
  "prefetch": {
    "item1": {
      "response": {
        "status": "200 OK"
      },
      "resource": {
        "resourceType": "Patient",
        "id": "example-rec-11-benzo-trigger-with-opioid",
        "gender": "female",
        "birthDate": "1982-01-07"
      }
    },
    "item2": {
      "response": {
        "status": "200 OK"
      },
      "resource": {
        "resourceType": "MedicationRequest",
        "id": "example-rec-11-benzo-trigger-with-opioid-prefetch",
        "status": "active",
        "intent": "order",
        "category": {
          "coding": [
            {
              "system": "http://hl7.org/fhir/CodeSystem/medication-request-category",
              "code": "community"
            }
          ]
        },
        "medicationCodeableConcept": {
          "coding": [
            {
              "system": "http://www.nlm.nih.gov/research/umls/CodeSystem/rxnorm",
              "code": "1049502",
              "display": "12 HR Oxycodone Hydrochloride 10 MG Extended Release Oral Tablet"
            }
          ]
        },
        "subject": {
          "reference": "Patient/example-rec-11-benzo-trigger-with-opioid"
        },
        "context": {
          "reference": "Encounter/example-rec-11-benzo-trigger-with-opioid-prefetch"
        },
        "_authoredOn": {
          "extension": [
            {
              "url": "http://hl7.org/fhir/StructureDefinition/cqif-cqlExpression",
              "valueString": "Today() - 28 days"
            }
          ]
        },
        "dosageInstruction": [
          {
            "timing": {
              "repeat": {
                "frequency": 1,
                "period": 1.0,
                "periodUnit": "d"
              }
            },
            "asNeededBoolean": false,
            "doseQuantity": {
              "value": 1.0,
              "unit": "tablet",
              "system": "http://hl7.org/fhir/v3/orderableDrugForm",
              "code": "TAB"
            }
          }
        ],
        "dispenseRequest": {
          "validityPeriod": {
            "extension": [
              {
                "url": "http://hl7.org/fhir/StructureDefinition/cqif-cqlExpression",
                "valueString": "FHIR.Period { start: FHIR.dateTime { value: Today() - 28 days }, end: FHIR.dateTime { value: Today() + 3 months } }"
              }
            ]
          },
          "numberOfRepeatsAllowed": 3,
          "expectedSupplyDuration": {
            "value": 30.0,
            "unit": "days",
            "system": "http://unitsofmeasure.org",
            "code": "d"
          }
        }
      }
    },
    "item3": {
      "response": {
        "status": "200 OK"
      },
      "resource": {
        "resourceType": "Encounter",
        "id": "example-rec-11-benzo-trigger-with-opioid-prefetch",
        "status": "finished",
        "subject": {
          "reference": "Patient/example-rec-11-benzo-trigger-with-opioid"
        },
        "period": {
          "extension": [
            {
              "url": "http://hl7.org/fhir/StructureDefinition/cqif-cqlExpression",
              "valueString": "FHIR.Period { start: FHIR.dateTime { value: Today() - 28 days }, end: FHIR.dateTime { value: Today() - 28 days } }"
            }
          ]
        }
      }
    }
  }
}
