{
  "hookInstance": "259cf767-4b52-4e14-a741-04da147a430f",
  "fhirServer": "http://localhost:8080/fhir",
  "hook": "order-select",
  "user": "Practitioner/example",
  "context": {
    "patientId": "Patient/example-rec-11-benzo-trigger-without-opioid",
    "encounterId": "Encounter/example-rec-11-benzo-trigger-without-opioid-context",
    "draftOrders": {
      "resourceType": "Bundle",
      "entry": [{
        "resource": {
          "resourceType": "MedicationRequest",
          "id": "example-rec-11-benzo-trigger-without-opioid-context",
          "extension": [
            {
              "url": "http://fhir.org/guides/cdc/opioid-cds/StructureDefinition/dataDateRoller",
              "extension": [
                {
                  "url": "dateLastUpdated",
                  "valueDateTime": "2022-04-22"
                },
                {
                  "url": "frequency",
                  "valueDuration": {
                    "value": 30.0,
                    "unit": "days",
                    "system": "http://unitsofmeasure.org",
                    "code": "d"
                  }
                }
              ]
            }
          ],
          "status": "active",
          "intent": "order",
          "category": {
            "coding": [{
              "system": "http://hl7.org/fhir/medication-request-category",
              "code": "community"
            }]
          },
          "medicationCodeableConcept": {
            "coding": [{
              "system": "http://www.nlm.nih.gov/research/umls/rxnorm",
              "code": "1298088",
              "display": "Flurazepam Hydrochloride 15 MG Oral Capsule"
            }]
          },
          "subject": {
            "reference": "Patient/example-rec-11-benzo-trigger-without-opioid"
          },
          "context": {
            "reference": "Encounter/example-rec-11-benzo-trigger-without-opioid-context"
          },
          "authoredOn": "2022-04-22",
          "dosageInstruction": [{
            "timing": {
              "repeat": {
                "frequency": 1,
                "period": 1.0,
                "periodUnit": "d"
              }
            },
            "asNeededBoolean": false,
            "doseQuantity": {
              "value": 1.0,
              "unit": "capsule"
            }
          }],
          "dispenseRequest": {
            "validityPeriod": {
              "start" : "2022-04-22",
              "end" : "2022-07-22"
            },
            "numberOfRepeatsAllowed": 3,
            "expectedSupplyDuration": {
              "value": 30.0,
              "unit": "days",
              "system": "http://unitsofmeasure.org",
              "code": "d"
            }
          }
        }
      }]
    }
  },
  "prefetch": {
    "item1": {
      "response": {
        "status": "200 OK"
      },
      "resource": {
        "resourceType": "Patient",
        "id": "example-rec-11-benzo-trigger-without-opioid",
        "gender": "female",
        "birthDate": "1982-01-07"
      }
    },
    "item2": null
  }
}
