{
  "hookInstance": "31c74cfc-747c-4afc-82e4-bdd3b7a0a58c",
  "fhirServer": "http://localhost:8080/cqf-ruler/baseDstu3",
  "hook": "patient-view",
  "applyCql": true,
  "context": {
    "user": "Practitioner/example",
    "patientId": "Patient/example-rec-10-illicit-drugs",
    "encounterId": "Encounter/example-rec-10-illicit-drugs-context"
  },
  "prefetch": {
    "item1": {
      "response": {
        "status": "200 OK"
      },
      "resource": {
        "resourceType": "Patient",
        "id": "example-rec-10-illicit-drugs",
        "gender": "female",
        "birthDate": "1982-01-07",
        "name": [
          {
            "family": "Smith",
            "given": [
              "John",
              "A."
            ]
          }
        ]
      }
    },
    "item2": {
      "response": {
        "status": "200 OK"
      },
      "resource": {
        "resourceType": "Observation",
        "id": "example-rec-10-illicit-drugs-prefetch",
        "status": "final",
        "code": {
          "coding": [
            {
              "system": "http://loinc.org",
              "code": "3426-4",
              "display": "Tetrahydrocannabinol [Presence] in Urine"
            }
          ]
        },
        "subject": {
          "reference": "Patient/example-rec-10-illicit-drugs"
        },
        "_effectiveDateTime": {
          "extension": [
            {
              "url": "http://hl7.org/fhir/StructureDefinition/cqif-cqlExpression",
              "valueString": "Today() - 28 days"
            }
          ]
        },
        "interpretation": {
          "coding": [
            {
              "system": "http://hl7.org/fhir/v2/0078",
              "code": "POS"
            }
          ]
        }
      }
    },
    "item3": null,
    "item4": {
      "response": {
        "status": "200 OK"
      },
      "resource": {
        "resourceType": "Bundle",
        "entry": [
          {
            "resource": {
              "resourceType": "MedicationRequest",
              "id": "example-rec-10-illicit-drugs-prefetch",
              "status": "active",
              "intent": "order",
              "category": {
                "coding": [
                  {
                    "system": "http://hl7.org/fhir/medication-request-category",
                    "code": "community"
                  }
                ]
              },
              "medicationReference": {
                "reference": "Medication/example-rec-10-illicit-drugs-oxycodone"
              },
              "subject": {
                "reference": "Patient/example-rec-10-illicit-drugs"
              },
              "context": {
                "reference": "Encounter/example-rec-10-illicit-drugs-prefetch"
              },
              "_authoredOn": {
                "extension": [
                  {
                    "url": "http://hl7.org/fhir/StructureDefinition/cqif-cqlExpression",
                    "valueString": "Today() - 90 days"
                  }
                ]
              },
              "dosageInstruction": [
                {
                  "timing": {
                    "repeat": {
                      "frequency": 3,
                      "period": 1.0,
                      "periodUnit": "d"
                    }
                  },
                  "asNeededBoolean": false,
                  "doseQuantity": {
                    "value": 1.0,
                    "unit": "tablet"
                  }
                }
              ],
              "dispenseRequest": {
                "validityPeriod": {
                  "extension": [
                    {
                      "url": "http://hl7.org/fhir/StructureDefinition/cqif-cqlExpression",
                      "valueString": "FHIR.Period { start: FHIR.dateTime { value: Today() - 90 days }, end: FHIR.dateTime { value: Today() } }"
                    }
                  ]
                },
                "numberOfRepeatsAllowed": 3,
                "expectedSupplyDuration": {
                  "value": 30.0,
                  "code": "d",
                  "unit": "Day"
                }
              }
            }
          },
          {
            "resource": {
              "resourceType": "MedicationRequest",
              "id": "example-rec-10-illicit-drugs-context",
              "status": "active",
              "intent": "order",
              "category": {
                "coding": [
                  {
                    "system": "http://hl7.org/fhir/medication-request-category",
                    "code": "community"
                  }
                ]
              },
              "medicationReference": {
                "reference": "Medication/example-rec-10-illicit-drugs-fentanyl"
              },
              "subject": {
                "reference": "Patient/example-rec-10-illicit-drugs"
              },
              "context": {
                "reference": "Encounter/example-rec-10-illicit-drugs-context"
              },
              "_authoredOn": {
                "extension": [
                  {
                    "url": "http://hl7.org/fhir/StructureDefinition/cqif-cqlExpression",
                    "valueString": "Today()"
                  }
                ]
              },
              "dosageInstruction": [
                {
                  "timing": {
                    "repeat": {
                      "frequency": 1,
                      "period": 12.0,
                      "periodUnit": "d"
                    }
                  },
                  "asNeededBoolean": false,
                  "doseQuantity": {
                    "value": 1.0,
                    "unit": "patch"
                  }
                }
              ],
              "dispenseRequest": {
                "validityPeriod": {
                  "extension": [
                    {
                      "url": "http://hl7.org/fhir/StructureDefinition/cqif-cqlExpression",
                      "valueString": "FHIR.Period { start: FHIR.dateTime { value: Today() }, end: FHIR.dateTime { value: Today() + 3 months } }"
                    }
                  ]
                },
                "numberOfRepeatsAllowed": 3,
                "expectedSupplyDuration": {
                  "value": 30.0,
                  "code": "d",
                  "unit": "Day"
                }
              }
            }
          }
        ]
      }
    }
  }
}
