{
  "hookInstance": "cbc21d9f-3a7c-478b-9b44-041a3bdee009",
  "fhirServer": "http://measure.eval.kanvix.com/cqf-ruler/baseDstu3",
  "hook": "medication-prescribe",
  "user": "Practitioner/example",
  "applyCql": true,
  "context": {
    "patientId": "Patient/example-rec-10-unprescribed-opioids",
    "encounterId": "Encounter/example-rec-10-unprescribed-opioids-context",
    "medications": [
      {
        "resourceType": "MedicationRequest",
        "id": "example-rec-10-unprescribed-opioids-context",
        "status": "active",
        "intent": "order",
        "category": {
          "coding": [
            {
              "system": "http://hl7.org/fhir/medication-request-category",
              "code": "outpatient"
            }
          ]
        },
        "medicationCodeableConcept": {
          "coding": [
            {
              "system": "http://www.nlm.nih.gov/research/umls/rxnorm",
              "code": "197696",
              "display": "72 HR Fentanyl 0.075 MG/HR Transdermal System"
            }
          ]
        },
        "subject": {
          "reference": "Patient/example-rec-10-unprescribed-opioids"
        },
        "context": {
          "reference": "Encounter/example-rec-10-unprescribed-opioids-context"
        },
        "_authoredOn": {
          "extension": [
            {
              "url": "http://hl7.org/fhir/StructureDefinition/cqif-cqlExpression",
              "valueString": "Today()"
            }
          ]
        },
        "dosageInstruction": [
          {
            "timing": {
              "repeat": {
                "frequency": 1,
                "period": 12.0,
                "periodUnit": "d"
              }
            },
            "asNeededBoolean": false,
            "doseQuantity": {
              "value": 1.0,
              "unit": "patch"
            }
          }
        ],
        "dispenseRequest": {
          "validityPeriod": {
            "extension": [
              {
                "url": "http://hl7.org/fhir/StructureDefinition/cqif-cqlExpression",
                "valueString": "FHIR.Period { start: FHIR.dateTime { value: Today() }, end: FHIR.dateTime { value: Today() + 3 months } }"
              }
            ]
          },
          "numberOfRepeatsAllowed": 3,
          "expectedSupplyDuration": {
            "value": 30.0,
            "unit": "d"
          }
        }
      }
    ]
  },
  "prefetch": {
    "item1": {
      "response": {
        "status": "200 OK"
      },
      "resource": {
        "resourceType": "MedicationRequest",
        "id": "example-rec-10-unprescribed-opioids-prefetch",
        "status": "active",
        "intent": "order",
        "category": {
          "coding": [
            {
              "system": "http://hl7.org/fhir/medication-request-category",
              "code": "outpatient"
            }
          ]
        },
        "medicationCodeableConcept": {
          "coding": [
            {
              "system": "http://www.nlm.nih.gov/research/umls/rxnorm",
              "code": "1049502",
              "display": "12 HR Oxycodone Hydrochloride 10 MG Extended Release Oral Tablet"
            }
          ]
        },
        "subject": {
          "reference": "Patient/example-rec-10-unprescribed-opioids"
        },
        "context": {
          "reference": "Encounter/example-rec-10-unprescribed-opioids-prefetch"
        },
        "_authoredOn": {
          "extension": [
            {
              "url": "http://hl7.org/fhir/StructureDefinition/cqif-cqlExpression",
              "valueString": "Today() - 90 days"
            }
          ]
        },
        "dosageInstruction": [
          {
            "timing": {
              "repeat": {
                "frequency": 3,
                "period": 1.0,
                "periodUnit": "d"
              }
            },
            "asNeededBoolean": false,
            "doseQuantity": {
              "value": 1.0,
              "unit": "tablet"
            }
          }
        ],
        "dispenseRequest": {
          "validityPeriod": {
            "extension": [
              {
                "url": "http://hl7.org/fhir/StructureDefinition/cqif-cqlExpression",
                "valueString": "FHIR.Period { start: FHIR.dateTime { value: Today() - 90 days }, end: FHIR.dateTime { value: Today() } }"
              }
            ]
          },
          "numberOfRepeatsAllowed": 3,
          "expectedSupplyDuration": {
            "value": 30.0,
            "unit": "d"
          }
        }
      }
    },
    "item2": {
      "response": {
        "status": "200 OK"
      },
      "resource": {
        "resourceType": "Encounter",
        "id": "example-rec-10-unprescribed-opioids-prefetch",
        "status": "finished",
        "subject": {
          "reference": "Patient/example-rec-10-unprescribed-opioids"
        },
        "period": {
          "extension": [
            {
              "url": "http://hl7.org/fhir/StructureDefinition/cqif-cqlExpression",
              "valueString": "FHIR.Period { start: FHIR.dateTime { value: Today() - 90 days }, end: FHIR.dateTime { value: Today() - 90 days } }"
            }
          ]
        }
      }
    },
    "item3": {
      "response": {
        "status": "200 OK"
      },
      "resource": {
        "resourceType": "Bundle",
        "type": "searchset",
        "entry": [
          {
            "resource": {
              "resourceType": "Observation",
              "id": "example-rec-10-unprescribed-opioids-prefetch-codeine",
              "status": "final",
              "code": {
                "coding": [
                  {
                    "system": "http://loinc.org",
                    "code": "3507-1",
                    "display": "Codeine [Presence] in Urine"
                  }
                ]
              },
              "subject": {
                "reference": "Patient/example-rec-10-unprescribed-opioids"
              },
              "_effectiveDateTime": {
                "extension": [
                  {
                    "url": "http://hl7.org/fhir/StructureDefinition/cqif-cqlExpression",
                    "valueString": "Today() - 21 days"
                  }
                ]
              },
              "interpretation": {
                "coding": [
                  {
                    "system": "http://hl7.org/fhir/v2/0078",
                    "code": "POS"
                  }
                ]
              }
            }
          },
          {
            "resource": {
              "resourceType": "Observation",
              "id": "example-rec-10-unprescribed-opioids-prefetch-oxycodone",
              "status": "final",
              "code": {
                "coding": [
                  {
                    "system": "http://loinc.org",
                    "code": "10998-3",
                    "display": "Oxycodone [Presence] in Urine"
                  }
                ]
              },
              "subject": {
                "reference": "Patient/example-rec-10-unprescribed-opioids"
              },
              "_effectiveDateTime": {
                "extension": [
                  {
                    "url": "http://hl7.org/fhir/StructureDefinition/cqif-cqlExpression",
                    "valueString": "Today() - 28 days"
                  }
                ]
              },
              "interpretation": {
                "coding": [
                  {
                    "system": "http://hl7.org/fhir/v2/0078",
                    "code": "POS"
                  }
                ]
              }
            }
          }
        ]
      }
    },
    "item4": {
      "response": {
        "status": "200 OK"
      },
      "resource": {
        "resourceType": "Patient",
        "id": "example-rec-10-unprescribed-opioids",
        "gender": "female",
        "birthDate": "1982-01-07"
      }
    },
    "item5": null,
    "item6": null,
    "item7": null,
    "item8": null,
    "item9": null,
    "item10": null,
    "item11": null,
    "item12": null,
    "item13": null,
    "item14": null,
    "item15": null
  }
}