{
  "hookInstance": "d4318443-3981-4def-b852-dbb47ec1827b",
  "fhirServer": "http://localhost:8080/fhir",
  "hook": "order-select",
  "user": "Practitioner/example",
  "context": {
    "patientId": "Patient/example-rec-07-sixtythree-of-past-ninety-days",
    "encounterId": "Encounter/example-rec-07-sixtythree-of-past-ninety-days-context",
    "medications": [
      {
        "resourceType": "MedicationRequest",
        "id": "example-rec-07-sixtythree-of-past-ninety-days-context",
        "status": "active",
        "intent": "order",
        "category": {
          "coding": [
            {
              "system": "http://hl7.org/fhir/medication-request-category",
              "code": "outpatient"
            }
          ]
        },
        "medicationCodeableConcept": {
          "coding": [
            {
              "system": "http://www.nlm.nih.gov/research/umls/rxnorm",
              "code": "1049502",
              "display": "12 HR Oxycodone Hydrochloride 10 MG Extended Release Oral Tablet"
            }
          ]
        },
        "subject": {
          "reference": "Patient/example-rec-07-sixtythree-of-past-ninety-days"
        },
        "context": {
          "reference": "Encounter/example-rec-07-sixtythree-of-past-ninety-days-context"
        },
        "authoredOn": {
          "extension": [
            {
              "url": "http://hl7.org/fhir/StructureDefinition/cqif-cqlExpression",
              "valueString": "2022-04-22"
            }
          ]
        },
        "dosageInstruction": [
          {
            "timing": {
              "repeat": {
                "frequency": 1,
                "period": 1.0,
                "periodUnit": "d"
              }
            },
            "asNeededBoolean": false,
            "doseQuantity": {
              "value": 1.0,
              "unit": "tablet",
              "system": "http://hl7.org/fhir/v3/orderableDrugForm",
              "code": "TAB"
            }
          }
        ],
        "dispenseRequest": {
          "validityPeriod": {
            "start" : "2022-04-22",
            "end" : "2022-07-22"
          },
          "numberOfRepeatsAllowed": 1,
          "expectedSupplyDuration": {
            "value": 30.0,
            "unit": "days",
            "system": "http://unitsofmeasure.org",
            "code": "d"
          }
        }
      }
    ]
  },
  "prefetch": {
    "item1": {
      "response": {
        "status": "200 OK"
      },
      "resource": {
        "resourceType": "MedicationRequest",
        "id": "example-rec-07-sixtythree-of-past-ninety-days-prefetch",
        "status": "active",
        "intent": "order",
        "category": {
          "coding": [
            {
              "system": "http://hl7.org/fhir/medication-request-category",
              "code": "outpatient"
            }
          ]
        },
        "medicationCodeableConcept": {
          "coding": [
            {
              "system": "http://www.nlm.nih.gov/research/umls/rxnorm",
              "code": "1049502",
              "display": "12 HR Oxycodone Hydrochloride 10 MG Extended Release Oral Tablet"
            }
          ]
        },
        "subject": {
          "reference": "Patient/example-rec-07-sixtythree-of-past-ninety-days"
        },
        "context": {
          "reference": "Encounter/example-rec-07-sixtythree-of-past-ninety-days-prefetch"
        },
        "authoredOn": {
          "extension": [
            {
              "url": "http://hl7.org/fhir/StructureDefinition/cqif-cqlExpression",
              "valueString": "2022-01-22"
            }
          ]
        },
        "dosageInstruction": [
          {
            "timing": {
              "repeat": {
                "frequency": 1,
                "period": 1.0,
                "periodUnit": "d"
              }
            },
            "asNeededBoolean": false,
            "doseQuantity": {
              "value": 1.0,
              "unit": "tablet",
              "system": "http://hl7.org/fhir/v3/orderableDrugForm",
              "code": "TAB"
            }
          }
        ],
        "dispenseRequest": {
          "validityPeriod": {
            "start" : "2022-01-22",
            "end" : "2022-04-22"
          },
          "numberOfRepeatsAllowed": 1,
          "expectedSupplyDuration": {
            "value": 63.0,
            "unit": "days",
            "system": "http://unitsofmeasure.org",
            "code": "d"
          }
        }
      }
    },
    "item2": {
      "response": {
        "status": "200 OK"
      },
      "resource": {
        "resourceType": "Encounter",
        "id": "example-rec-07-sixtythree-of-past-ninety-days-prefetch",
        "status": "finished",
        "subject": {
          "reference": "Patient/example-rec-07-sixtythree-of-past-ninety-days"
        },
        "period": {
          "start" : "2022-01-22",
          "end" : "2022-01-22"
        }
      }
    },
    "item3": {
      "response": {
        "status": "200 OK"
      },
      "resource": {
        "resourceType": "Patient",
        "id": "example-rec-07-sixtythree-of-past-ninety-days",
        "gender": "male",
        "birthDate": "1982-01-07"
      }
    },
    "item4": null,
    "item5": null,
    "item6": null,
    "item7": null,
    "item8": null,
    "item9": null,
    "item10": null,
    "item11": null,
    "item12": null,
    "item13": null,
    "item14": null
  }
}
