{
  "hookInstance": "f4a85598-bc39-4c4f-a944-c876eb0e984e",
  "fhirServer": "http://localhost:8080/fhir",
  "hook": "order-select",
  "user": "Practitioner/example",
  "context": {
    "patientId": "Patient/example-rec-07-risk-assessment",
    "encounterId": "Encounter/example-rec-07-risk-assessment-context",
    "medications": [
      {
        "resourceType": "MedicationRequest",
        "id": "example-rec-07-risk-assessment-context",
        "extension": [
          {
            "url": "http://fhir.org/guides/cdc/opioid-cds/StructureDefinition/dataDateRoller",
            "extension": [
              {
                "url": "dateLastUpdated",
                "valueDateTime": "2022-04-22"
              },
              {
                "url": "frequency",
                "valueDuration": {
                  "value": 30.0,
                  "unit": "days",
                  "system": "http://unitsofmeasure.org",
                  "code": "d"
                }
              }
            ]
          }
        ],
        "status": "active",
        "intent": "order",
        "category": {
          "coding": [
            {
              "system": "http://hl7.org/fhir/medication-request-category",
              "code": "outpatient"
            }
          ]
        },
        "medicationCodeableConcept": {
          "coding": [
            {
              "system": "http://www.nlm.nih.gov/research/umls/rxnorm",
              "code": "1049502",
              "display": "12 HR Oxycodone Hydrochloride 10 MG Extended Release Oral Tablet"
            }
          ]
        },
        "subject": {
          "reference": "Patient/example-rec-07-risk-assessment"
        },
        "context": {
          "reference": "Encounter/example-rec-07-risk-assessment-context"
        },
        "authoredOn": "2022-04-22",
        "dosageInstruction": [
          {
            "timing": {
              "repeat": {
                "frequency": 1,
                "period": 1.0,
                "periodUnit": "d"
              }
            },
            "asNeededBoolean": false,
            "doseQuantity": {
              "value": 1.0,
              "unit": "tablet",
              "system": "http://hl7.org/fhir/v3/orderableDrugForm",
              "code": "TAB"
            }
          }
        ],
        "dispenseRequest": {
          "validityPeriod": {
            "start" : "2022-04-22",
            "end" : "2022-07-22"
          },
          "numberOfRepeatsAllowed": 1,
          "expectedSupplyDuration": {
            "value": 30.0,
            "unit": "days",
            "system": "http://unitsofmeasure.org",
            "code": "d"
          }
        }
      }
    ]
  },
  "prefetch": {
    "item1": null,
    "item2": {
      "response": {
        "status": "200 OK"
      },
      "resource": {
        "resourceType": "Encounter",
        "id": "example-rec-07-risk-assessment-prefetch",
        "extension": [
          {
            "url": "http://fhir.org/guides/cdc/opioid-cds/StructureDefinition/dataDateRoller",
            "extension": [
              {
                "url": "dateLastUpdated",
                "valueDateTime": "2022-04-22"
              },
              {
                "url": "frequency",
                "valueDuration": {
                  "value": 30.0,
                  "unit": "days",
                  "system": "http://unitsofmeasure.org",
                  "code": "d"
                }
              }
            ]
          }
        ],
        "status": "finished",
        "subject": {
          "reference": "Patient/example-rec-07-risk-assessment"
        },
        "period": {
          "start" : "2022-04-08",
          "end" : "2022-04-08"
        }
      }
    },
    "item3": {
      "response": {
        "status": "200 OK"
      },
      "resource": {
        "resourceType": "Patient",
        "id": "example-rec-07-risk-assessment",
        "gender": "male",
        "birthDate": "1982-01-07"
      }
    },
    "item4": {
      "response": {
        "status": "200 OK"
      },
      "resource": {
        "resourceType": "Procedure",
        "id": "example-rec-07-risk-assessment-prefetch",
        "extension": [
          {
            "url": "http://fhir.org/guides/cdc/opioid-cds/StructureDefinition/dataDateRoller",
            "extension": [
              {
                "url": "dateLastUpdated",
                "valueDateTime": "2022-04-22"
              },
              {
                "url": "frequency",
                "valueDuration": {
                  "value": 30.0,
                  "unit": "days",
                  "system": "http://unitsofmeasure.org",
                  "code": "d"
                }
              }
            ]
          }
        ],
        "status": "completed",
        "code": {
          "coding": [
            {
              "system": "http://snomed.info/sct",
              "code": "268525008",
              "display": "High risk drug monitoring (regime/therapy)"
            }
          ]
        },
        "subject": {
          "reference": "Patient/example-rec-07-risk-assessment"
        },
        "context": {
          "reference": "Encounter/example-rec-07-risk-assessment-prefetch"
        },
        "performedPeriod": {
          "start" : "2022-04-08",
          "end" : "2022-04-08"
        }
      }
    },
    "item5": null,
    "item6": null,
    "item7": null,
    "item8": null,
    "item9": null,
    "item10": null,
    "item11": null,
    "item12": null,
    "item13": null,
    "item14": null
  }
}
