{
  "hookInstance": "c05d526f-bf09-4460-acb1-618d1d8d77c2",
  "fhirServer": "http://localhost:8080/cqf-ruler-dstu3/baseDstu2",
  "hook": "patient-view",
  "user": "Practitioner/example",
  "context": {
    "patientId": "patient-rec-10-illicit-drugs-patient-view",
    "encounterId": "encounter-context-rec-10-illicit-drugs-patient-view"
  },
  "prefetch": {
    "item2": {
      "response": {
        "status": "200 OK"
      },
      "resource": {
        "resourceType": "MedicationOrder",
        "id": "order-oxy-rec-10-illicit-drugs-patient-view",
        "dateWritten": "2018-12-21",
        "status": "active",
        "patient": {
          "reference": "Patient/patient-rec-10-illicit-drugs-patient-view"
        },
        "encounter": {
          "reference": "Encounter/encounter-prefetch-rec-10-illicit-drugs-patient-view"
        },
        "medicationCodeableConcept": {
          "coding": [
            {
              "system": "http://www.nlm.nih.gov/research/umls/CodeSystem/rxnorm",
              "code": "1049502",
              "display": "12 HR Oxycodone Hydrochloride 10 MG Extended Release Oral Tablet"
            }
          ]
        },
        "dosageInstruction": [
          {
            "timing": {
              "repeat": {
                "frequency": 3,
                "period": 1.0,
                "periodUnits": "d"
              }
            },
            "asNeededBoolean": false,
            "doseQuantity": {
              "value": 1.0,
              "unit": "tablet",
              "system": "http://hl7.org/fhir/v3/orderableDrugForm",
              "code": "TAB"
            }
          }
        ],
        "dispenseRequest": {
          "validityPeriod": {
            "start": "2018-12-21",
            "end": "2019-03-21"
          },
          "numberOfRepeatsAllowed": 3,
          "expectedSupplyDuration": {
            "value": 30.0,
            "unit": "days",
            "system": "http://unitsofmeasure.org",
            "code": "d"
          }
        }
      }
    },
    "item1": {
      "response": {
        "status": "200 OK"
      },
      "resource": {
        "resourceType": "Patient",
        "id": "patient-rec-10-illicit-drugs-patient-view",
        "gender": "female",
        "birthDate": "1982-01-07"
      }
    },
    "item4": {
      "response": {
        "status": "200 OK"
      },
      "resource": {
        "resourceType": "Observation",
        "id": "observation-rec-10-illicit-drugs-patient-view",
        "status": "final",
        "code": {
          "coding": [
            {
              "system": "http://loinc.org",
              "code": "3426-4",
              "display": "Tetrahydrocannabinol [Presence] in Urine"
            }
          ]
        },
        "subject": {
          "reference": "Patient/patient-rec-10-illicit-drugs-patient-view"
        },
        "effectiveDateTime": "2019-01-22",
        "interpretation": {
          "coding": [
            {
              "system": "http://hl7.org/fhir/v2/0078",
              "code": "POS"
            }
          ]
        }
      }
    },
    "item3": {
      "response": {
        "status": "200 OK"
      },
      "resource": {
        "resourceType": "Bundle",
        "entry": [
          {
            "resource": {
              "resourceType": "Encounter",
              "id": "encounter-context-rec-10-illicit-drugs-patient-view",
              "status": "finished",
              "patient": {
                "reference": "Patient/patient-rec-10-illicit-drugs-patient-view"
              },
              "period": {
                "start": "2018-12-11",
                "end": "2018-12-11"
              }
            }
          },
          {
            "resource": {
              "resourceType": "Encounter",
              "id": "encounter-prefetch-rec-10-illicit-drugs-patient-view",
              "status": "finished",
              "patient": {
                "reference": "Patient/patient-rec-10-illicit-drugs-patient-view"
              },
              "period": {
                "start": "2018-12-21",
                "end": "2018-12-21"
              }
            }
          }
        ]
      }
    },
    "item5": {
      "response": {
        "status": "200 OK"
      },
      "resource": {
        "resourceType": "MedicationOrder",
        "id": "order-fentanyl-rec-10-illicit-drugs-patient-view",
        "dateWritten": "2018-12-11",
        "status": "active",
        "patient": {
          "reference": "Patient/patient-rec-10-illicit-drugs-patient-view"
        },
        "encounter": {
          "reference": "Encounter/encounter-context-rec-10-illicit-drugs-patient-view"
        },
        "medicationCodeableConcept": {
          "coding": [
            {
              "system": "http://www.nlm.nih.gov/research/umls/CodeSystem/rxnorm",
              "code": "197696",
              "display": "72 HR Fentanyl 0.075 MG/HR Transdermal System"
            }
          ]
        },
        "dosageInstruction": [
          {
            "timing": {
              "repeat": {
                "frequency": 1,
                "period": 12.0,
                "periodUnits": "d"
              }
            },
            "asNeededBoolean": false,
            "doseQuantity": {
              "value": 1.0,
              "unit": "patch",
				      "system": "http://hl7.org/fhir/v3/orderableDrugForm",
				      "code": "PATCH"
            }
          }
        ],
        "dispenseRequest": {
          "validityPeriod": {
            "start": "2018-12-11",
            "end": "2019-03-11"
          },
          "numberOfRepeatsAllowed": 3,
          "expectedSupplyDuration": {
            "value": 30.0,
            "unit": "days",
            "system": "http://unitsofmeasure.org",
            "code": "d"
          }
        }
      }
    }
  }
}
