{
  "hookInstance": "3078316d-e23f-4094-aec6-a6094ad29204",
  "fhirServer": "http://localhost:8080/fhir",
  "hook": "order-select",
  "user": "Practitioner/example",
  "context": {
    "patientId": "Patient/example-rec-11-opioid-trigger-with-benzo",
    "encounterId": "Encounter/example-rec-11-opioid-trigger-with-benzo-context",
    "draftOrders": {
      "resourceType": "Bundle",
      "entry": [{
        "resource": {
          "resourceType": "MedicationRequest",
          "id": "example-rec-11-opioid-trigger-with-benzo-context",
          "extension": [
            {
              "url": "http://fhir.org/guides/cdc/opioid-cds/StructureDefinition/dataDateRoller",
              "extension": [
                {
                  "url": "dateLastUpdated",
                  "valueDateTime": "2022-04-22"
                },
                {
                  "url": "frequency",
                  "valueDuration": {
                    "value": 30.0,
                    "unit": "days",
                    "system": "http://unitsofmeasure.org",
                    "code": "d"
                  }
                }
              ]
            }
          ],
          "status": "active",
          "intent": "order",
          "category": {
            "coding": [{
              "system": "http://hl7.org/fhir/medication-request-category",
              "code": "community"
            }]
          },
          "medicationCodeableConcept": {
            "coding": [{
              "system": "http://www.nlm.nih.gov/research/umls/rxnorm",
              "code": "1049502",
              "display": "12 HR Oxycodone Hydrochloride 10 MG Extended Release Oral Tablet"
            }]
          },
          "subject": {
            "reference": "example-rec-11-opioid-trigger-with-benzo-context"
          },
          "context": {
            "reference": "Encounter/example-rec-11-opioid-trigger-with-benzo-context"
          },
          "authoredOn": {
            "extension": [{
              "url": "http://hl7.org/fhir/StructureDefinition/cqif-cqlExpression",
              "valueString": "2022-04-22"
            }]
          },
          "dosageInstruction": [{
            "timing": {
              "repeat": {
                "frequency": 1,
                "period": 1.0,
                "periodUnit": "d"
              }
            },
            "asNeededBoolean": false,
            "doseQuantity": {
              "value": 1.0,
              "unit": "tablet",
              "system": "http://hl7.org/fhir/v3/orderableDrugForm",
              "code": "TAB"
            }
          }],
          "dispenseRequest": {
            "validityPeriod": {
              "start" : "2022-04-22",
              "end" : "2022-07-22"
            },
            "numberOfRepeatsAllowed": 3,
            "expectedSupplyDuration": {
              "value": 30.0,
              "unit": "days",
              "system": "http://unitsofmeasure.org",
              "code": "d"
            }
          }
        }
      }]
    }
  },
  "prefetch": {
  	"item1": {
      "response": {
        "status": "200 OK"
      },
      "resource": {
        "resourceType": "Patient",
        "id": "example-rec-11-opioid-trigger-with-benzo",
        "gender": "female",
        "birthDate": "1982-01-07"
      }
    },
    "item2": {
      "response": {
        "status": "200 OK"
      },
      "resource": {
        "resourceType": "MedicationRequest",
        "id": "example-rec-11-opioid-trigger-with-benzo-prefetch",
        "extension": [
          {
            "url": "http://fhir.org/guides/cdc/opioid-cds/StructureDefinition/dataDateRoller",
            "extension": [
              {
                "url": "dateLastUpdated",
                "valueDateTime": "2022-04-22"
              },
              {
                "url": "frequency",
                "valueDuration": {
                  "value": 30.0,
                  "unit": "days",
                  "system": "http://unitsofmeasure.org",
                  "code": "d"
                }
              }
            ]
          }
        ],
        "status": "active",
        "intent": "order",
        "category": {
          "coding": [{
            "system": "http://hl7.org/fhir/medication-request-category",
            "code": "community"
          }]
        },
        "medicationCodeableConcept": {
          "coding": [{
            "system": "http://www.nlm.nih.gov/research/umls/rxnorm",
            "code": "1298088",
            "display": "Flurazepam Hydrochloride 15 MG Oral Capsule"
          }]
        },
        "subject": {
          "reference": "Patient/example-rec-11-opioid-trigger-with-benzo"
        },
        "context": {
          "reference": "Encounter/example-rec-11-opioid-trigger-with-benzo-prefetch"
        },
        "authoredOn": {
          "extension": [{
            "url": "http://hl7.org/fhir/StructureDefinition/cqif-cqlExpression",
            "valueString": "2022-03-25"
          }]
        },
        "dosageInstruction": [{
          "timing": {
            "repeat": {
              "frequency": 1,
              "period": 1.0,
              "periodUnit": "d"
            }
          },
          "asNeededBoolean": false,
          "doseQuantity": {
            "value": 1.0,
            "unit": "capsule"
          }
        }],
        "dispenseRequest": {
          "validityPeriod": {
            "start" : "2022-03-25",
            "end" : "2022-07-22"
          },
          "numberOfRepeatsAllowed": 3,
          "expectedSupplyDuration": {
            "value": 30.0,
            "unit": "days",
            "system": "http://unitsofmeasure.org",
            "code": "d"
          }
        }
      }
    },
    "item3": {
      "response": {
        "status": "200 OK"
      },
      "resource": {
        "resourceType": "Encounter",
        "id": "example-rec-11-opioid-trigger-with-benzo-prefetch",
        "extension": [
          {
            "url": "http://fhir.org/guides/cdc/opioid-cds/StructureDefinition/dataDateRoller",
            "extension": [
              {
                "url": "dateLastUpdated",
                "valueDateTime": "2022-04-22"
              },
              {
                "url": "frequency",
                "valueDuration": {
                  "value": 30.0,
                  "unit": "days",
                  "system": "http://unitsofmeasure.org",
                  "code": "d"
                }
              }
            ]
          }
        ],
        "status": "finished",
        "subject": {
          "reference": "Patient/example-rec-11-opioid-trigger-with-benzo"
        },
        "period": {
          "start" : "2022-03-25",
          "end" : "2022-03-25"
        }
      }
    }
  }
}
