{
  "hookInstance": "b3f03e4c-4270-4bb3-8a44-77d5ce3ba06d",
  "fhirServer": "http://localhost:8080/fhir",
  "hook": "patient-view",
  "user": "Practitioner/example",
  "context": {
    "patientId": "patient-rec-10-not-missing-prescribed-opioids-patient-view",
    "encounterId": "encounter-fentanyl-rec-10-not-missing-prescribed-opioids-patient-view"
  },
  "prefetch": {
    "item2": {
      "response": {
        "status": "200 OK"
      },
      "resource": {
        "resourceType": "Bundle",
        "entry": [
          {
            "resource": {
              "resourceType": "MedicationOrder",
              "id": "order-fentanyl-rec-10-not-missing-prescribed-opioids-patient-view",
              "dateWritten": "2019-01-30",
              "status": "active",
              "patient": {
                "reference": "Patient/patient-rec-10-not-missing-prescribed-opioids-patient-view"
              },
              "encounter": {
                "reference": "Encounter/encounter-fentanyl-rec-10-not-missing-prescribed-opioids-patient-view"
              },
              "medicationCodeableConcept": {
                "coding": [
                  {
                    "system": "http://www.nlm.nih.gov/research/umls/rxnorm",
                    "code": "197696",
                    "display": "72 HR Fentanyl 0.075 MG/HR Transdermal System"
                  }
                ]
              },
              "dosageInstruction": [
                {
                  "timing": {
                    "repeat": {
                      "frequency": 1,
                      "period": 12.0,
                      "periodUnits": "d"
                    }
                  },
                  "asNeededBoolean": false,
                  "doseQuantity": {
                    "value": 1.0,
                    "unit": "patch",
      				      "system": "http://hl7.org/fhir/v3/orderableDrugForm",
      				      "code": "PATCH"
                  }
                }
              ],
              "dispenseRequest": {
                "validityPeriod": {
                  "start": "2019-01-30",
                  "end": "2019-04-30"
                },
                "numberOfRepeatsAllowed": 3,
                "expectedSupplyDuration": {
                  "value": 30.0,
                  "unit": "days",
                  "system": "http://unitsofmeasure.org",
                  "code": "d"
                }
              }
            }
          },
          {
            "resource": {
              "resourceType": "MedicationOrder",
              "id": "order-oxy-rec-10-not-missing-prescribed-opioids-patient-view",
              "dateWritten": "2018-11-21",
              "status": "active",
              "patient": {
                "reference": "Patient/patient-rec-10-not-missing-prescribed-opioids-patient-view"
              },
              "encounter": {
                "reference": "Encounter/encounter-oxy-rec-10-not-missing-prescribed-opioids-patient-view"
              },
              "medicationCodeableConcept": {
                "coding": [
                  {
                    "system": "http://www.nlm.nih.gov/research/umls/rxnorm",
                    "code": "1049502",
                    "display": "12 HR Oxycodone Hydrochloride 10 MG Extended Release Oral Tablet"
                  }
                ]
              },
              "dosageInstruction": [
                {
                  "timing": {
                    "repeat": {
                      "frequency": 3,
                      "period": 1.0,
                      "periodUnits": "d"
                    }
                  },
                  "asNeededBoolean": false,
                  "doseQuantity": {
                    "value": 1.0,
                    "unit": "tablet",
      				      "system": "http://hl7.org/fhir/v3/orderableDrugForm",
      				      "code": "TAB"
                  }
                }
              ],
              "dispenseRequest": {
                "validityPeriod": {
                  "start": "2018-12-21",
                  "end": "2019-03-21"
                },
                "numberOfRepeatsAllowed": 3,
                "expectedSupplyDuration": {
                  "value": 30.0,
                  "unit": "days",
                  "system": "http://unitsofmeasure.org",
                  "code": "d"
                }
              }
            }
          }
        ]
      }
    },
    "item1": {
      "response": {
        "status": "200 OK"
      },
      "resource": {
        "resourceType": "Patient",
        "id": "patient-rec-10-not-missing-prescribed-opioids-patient-view",
        "gender": "female",
        "birthDate": "1982-01-07"
      }
    },
    "item4": {
      "response": {
        "status": "200 OK"
      },
      "resource": {
        "resourceType": "Observation",
        "id": "observation-rec-10-not-missing-prescribed-opioids-patient-view",
        "status": "final",
        "code": {
          "coding": [
            {
              "system": "http://loinc.org",
              "code": "10998-3",
              "display": "Oxycodone [Presence] in Urine"
            }
          ]
        },
        "subject": {
          "reference": "Patient/patient-rec-10-not-missing-prescribed-opioids-patient-view"
        },
        "effectiveDateTime": "2019-01-22",
        "interpretation": {
          "coding": [
            {
              "system": "http://hl7.org/fhir/v2/0078",
              "code": "POS"
            }
          ]
        }
      }
    },
    "item3": {
      "response": {
        "status": "200 OK"
      },
      "resource": {
        "resourceType": "Bundle",
        "entry": [
          {
            "resource": {
              "resourceType": "Encounter",
              "id": "encounter-fentanyl-rec-10-not-missing-prescribed-opioids-patient-view",
              "status": "finished",
              "patient": {
                "reference": "Patient/patient-rec-10-not-missing-prescribed-opioids-patient-view"
              },
              "period": {
                "start": "2019-01-30",
                "end": "2019-01-30"
              }
            }
          },
          {
            "resource": {
              "resourceType": "Encounter",
              "id": "encounter-oxy-rec-10-not-missing-prescribed-opioids-patient-view",
              "status": "finished",
              "patient": {
                "reference": "Patient/patient-rec-10-not-missing-prescribed-opioids-patient-view"
              },
              "period": {
                "start": "2018-12-21",
                "end": "2018-12-21"
              }
            }
          }
        ]
      }
    }
  }
}
