{
  "hookInstance": "31c74cfc-747c-4afc-82e4-bdd3b7a0a58c",
  "fhirServer": "http://localhost:8080/cqf-ruler-dstu3/fhir",
  "hook": "order-select",
  "applyCql": true,
  "context": {
    "userId": "Practitioner/example",
    "patientId": "Patient/example-rec-10-illicit-POS-Cocaine-drugs",
    "encounterId": "Encounter/example-rec-10-illicit-POS-Cocaine-drugs-context",
    "selections": [
      "MedicationRequest/example-rec-10-illicit-POS-Cocaine-drugs-context"
    ],
    "draftOrders": {
      "resourceType": "MedicationRequest",
      "id": "example-rec-10-illicit-POS-Cocaine-drugs-context",
      "status": "active",
      "intent": "order",
      "category": {
        "coding": [
          {
            "system": "http://terminology.hl7.org/CodeSystem/medicationrequest-category",
            "code": "community"
          }
        ]
      },
      "medicationCodeableConcept": {
        "coding": [
          {
            "system": "http://www.nlm.nih.gov/research/umls/rxnorm",
            "code": "197696",
            "display": "72 HR Fentanyl 0.075 MG/HR Transdermal System"
          }
        ]
      },
      "subject": {
        "reference": "Patient/example-rec-10-illicit-POS-Cocaine-drugs"
      },
      "encounter": {
        "reference": "Encounter/example-rec-10-illicit-POS-Cocaine-drugs-context"
      },
      "_authoredOn": {
        "extension": [
          {
            "url": "http://hl7.org/fhir/StructureDefinition/cqif-cqlExpression",
            "valueString": "Today()"
          }
        ]
      },
      "dosageInstruction": [
        {
          "timing": {
            "repeat": {
              "frequency": 1,
              "period": 12.0,
              "periodUnit": "d"
            }
          },
          "asNeededBoolean": false,
          "doseAndRate": [
            {
              "doseQuantity": {
                "value": 1.0,
                "unit": "patch"
              }
            }
          ]
        }
      ],
      "dispenseRequest": {
        "_validityPeriod": {
          "extension": [
            {
              "url": "http://hl7.org/fhir/StructureDefinition/cqf-expression",
              "valueExpression": {
                "language": "text/cql",
                "expression": "FHIR.Period { start: FHIR.dateTime { value: Today() }, end: FHIR.dateTime { value: Today() + 3 months } }"
              }
            }
          ]
        },
        "numberOfRepeatsAllowed": 3,
        "expectedSupplyDuration": {
          "value": 30.0,
          "unit": "days",
          "system": "http://unitsofmeasure.org",
          "code": "d"
        }
      }
    }
  },
  "prefetch": {
    "item1": {
      "response": {
        "status": "200 OK"
      },
      "resource": {
        "resourceType": "Patient",
        "id": "example-rec-10-illicit-POS-Cocaine-drugs",
        "gender": "female",
        "birthDate": "1982-01-07"
      }
    },
    "item2": {
      "response": {
        "status": "200 OK"
      },
      "resource": {
        "resourceType": "Bundle",
        "entry": [
          {
            "resource": {
              "resourceType": "Observation",
              "id": "example-rec-10-illicit-POS-Cocaine-drugs-prefetch",
              "status": "final",
              "category": {
                "coding": [
                  {
                    "system": "http://hl7.org/fhir/observation-category",
                    "code": "laboratory"
                  }
                ]
              },
              "code": {
                "coding": [
                  {
                    "system": "http://loinc.org",
                    "code": "70146-6",
                    "display": "Benzoylecgonine [Mass/volume] in Urine by Screen method"
                  }
                ]
              },
              "subject": {
                "reference": "Patient/example-rec-10-illicit-POS-Cocaine-drugs"
              },
              "effectiveDateTime": "2021-09-22",
              "valueString": "POS",
              "interpretation": [
                {
                  "coding": [
                    {
                      "system": "http://hl7.org/fhir/v2/0078",
                      "code": "POS"
                    }
                  ]
                }
              ]
            }
          },
          {
            "resource": {
              "resourceType": "Observation",
              "id": "example-rec-10-illicit-POS-Cocaine-drugs-prefetch",
              "status": "final",
              "category": {
                "coding": [
                  {
                    "system": "http://hl7.org/fhir/observation-category",
                    "code": "laboratory"
                  }
                ]
              },
              "code": {
                "coding": [
                  {
                    "system": "http://loinc.org",
                    "version": "2.68",
                    "code": "11246-6",
                    "display": "oxyCODONE (U) [Mass/Vol]"
                  }
                ]
              },
              "subject": {
                "reference": "Patient/example-rec-10-illicit-POS-Cocaine-drugs"
              },
              "effectiveDateTime": "2021-09-22",
              "valueString": "NEG",
              "interpretation": [
                {
                  "coding": [
                    {
                      "system": "http://hl7.org/fhir/v2/0078",
                      "code": "NEG"
                    }
                  ]
                }
              ]
            }
          },          {
            "resource": {
              "resourceType": "Observation",
              "id": "example-rec-10-illicit-POS-Cocaine-drugs-prefetch",
              "status": "final",
              "category": {
                "coding": [
                  {
                    "system": "http://hl7.org/fhir/observation-category",
                    "code": "laboratory"
                  }
                ]
              },
              "code": {
                "coding": [
                  {
                    "system": "http://loinc.org",
                    "code": "70146-6",
                    "display": "Benzoylecgonine [Mass/volume] in Urine by Screen method"
                  }
                ]
              },
              "subject": {
                "reference": "Patient/example-rec-10-illicit-POS-Cocaine-drugs"
              },
              "effectiveDateTime": "2021-11-01",
              "valueString": "NEG",
              "interpretation": [
                {
                  "coding": [
                    {
                      "system": "http://hl7.org/fhir/v2/0078",
                      "code": "NEG"
                    }
                  ]
                }
              ]
            }
          },
          {
            "resource": {
              "resourceType": "Observation",
              "id": "example-rec-10-illicit-POS-Cocaine-drugs-prefetch-4",
              "status": "final",
              "category": {
                "coding": [
                  {
                    "system": "http://hl7.org/fhir/observation-category",
                    "code": "laboratory"
                  }
                ]
              },
              "code": {
                "coding": [
                  {
                    "system": "http://loinc.org",
                    "code": "70146-6",
                    "display": "Benzoylecgonine [Mass/volume] in Urine by Screen method"
                  }
                ]
              },
              "subject": {
                "reference": "Patient/example-rec-10-illicit-POS-Cocaine-drugs"
              },
              "effectiveDateTime": "2021-10-23",
              "valueString": "POS",
              "interpretation": [
                {
                  "coding": [
                    {
                      "system": "http://hl7.org/fhir/v2/0078",
                      "code": "POS"
                    }
                  ]
                }
              ]
            }
          }
        ]
      }
    },
    "item3": null,
    "item4": null,
    "item5": null,
    "item6": null,
    "item7": null,
    "item8": null,
    "item9": null,
    "item10": null
  }
}
