{
  "hookInstance": "a172a2ce-38e7-4a21-a411-522cf481d5d1",
  "fhirServer": "http://localhost:8080/cqf-ruler-dstu3/fhir",
  "hook": "order-select",
  "applyCql": true,
  "context": {
    "user": "Practitioner/example",
    "userId": "Practitioner/123",
    "patientId": "Patient/example-rec-10-no-screenings",
    "encounterId": "example-rec-10-no-screenings-context",
    "selections": ["MedicationRequest/example-rec-10-no-screenings-context"]
  },
  "prefetch": {
  	"item1": {
      "response": {
        "status": "200 OK"
      },
      "resource": {
        "resourceType": "Patient",
        "id": "example-rec-10-no-screenings",
        "gender": "female",
        "birthDate": "1982-01-07"
      }
    },
    "item2": {
      "response": {
        "status": "200 OK"
      },
      "resource": {
        "resourceType": "MedicationRequest",
        "id": "example-rec-10-no-screenings-prefetch",
        "status": "active",
        "intent": "order",
        "category": {
          "coding": [{
            "system": "http://hl7.org/fhir/CodeSystem/medication-request-category",
            "code": "community"
          }]
        },
        "medicationCodeableConcept": {
          "coding": [{
            "system": "http://www.nlm.nih.gov/research/umls/rxnorm",
            "code": "1049502",
            "display": "12 HR Oxycodone Hydrochloride 10 MG Extended Release Oral Tablet"
          }]
        },
        "subject": {
          "reference": "Patient/example-rec-10-no-screenings"
        },
        "context": {
          "reference": "Encounter/example-rec-10-no-screenings-prefetch"
        },
        "_authoredOn": {
          "extension": [{
            "url": "http://hl7.org/fhir/StructureDefinition/cqif-cqlExpression",
            "valueString": "Today() - 90 days"
          }]
        },
        "dosageInstruction": [{
          "timing": {
            "repeat": {
              "frequency": 3,
              "period": 1.0,
              "periodUnit": "d"
            }
          },
          "asNeededBoolean": false,
          "doseQuantity": {
            "value": 1.0,
            "unit": "tablet",
            "system": "http://hl7.org/fhir/v3/orderableDrugForm",
            "code": "TAB"
          }
        }],
        "dispenseRequest": {
          "validityPeriod": {
            "extension": [{
              "url": "http://hl7.org/fhir/StructureDefinition/cqif-cqlExpression",
              "valueString": "FHIR.Period { start: FHIR.dateTime { value: Today() - 90 days }, end: FHIR.dateTime { value: Today() } }"
            }]
          },
          "numberOfRepeatsAllowed": 3,
          "expectedSupplyDuration": {
            "value": 30.0,
            "unit": "days",
            "system": "http://unitsofmeasure.org",
            "code": "d"
          }
        }
      }
    },
    "item3": {
      "response": {
        "status": "200 OK"
      },
      "resource": {
        "resourceType": "Encounter",
        "id": "example-rec-10-no-screenings-prefetch",
        "status": "finished",
        "subject": {
          "reference": "Patient/example-rec-10-no-screenings"
        },
        "period": {
          "extension": [{
            "url": "http://hl7.org/fhir/StructureDefinition/cqif-cqlExpression",
            "valueString": "FHIR.Period { start: FHIR.dateTime { value: Today() - 90 days }, end: FHIR.dateTime { value: Today() - 90 days } }"
          }]
        }
      }
    }
  }
}
