{
  "hookInstance": "9d02e4d7-2d5b-492f-8f77-d76edb47168b",
  "fhirServer": "http://localhost:8080/cqf-ruler-r4/fhir",
  "hook": "order-select",
  "applyCql": true,
  "context": {
    "userId": "Practitioner/example",
    "patientId": "Patient/example-rec-04-long-acting-opioid",
    "encounterId": "Encounter/example-rec-04-long-acting-opioid-context",
    "selections": [
      "MedicationRequest/example-rec-04-long-acting-opioid-context"
    ],
    "draftOrders": {
      "resourceType": "MedicationRequest",
      "id": "example-rec-04-long-acting-opioid-context",
      "status": "active",
      "intent": "order",
      "category": {
        "coding": [
          {
            "system": "http://terminology.hl7.org/CodeSystem/medicationrequest-category",
            "code": "community"
          }
        ]
      },
      "medicationCodeableConcept": {
        "coding": [
          {
            "system": "http://www.nlm.nih.gov/research/umls/rxnorm",
            "code": "1049502",
            "display": "12 HR Oxycodone Hydrochloride 10 MG Extended Release Oral Tablet"
          }
        ]
      },
      "subject": {
        "reference": "Patient/example-rec-04-long-acting-opioid"
      },
      "encounter": {
        "reference": "Encounter/example-rec-04-long-acting-opioid-context"
      },
      "authoredOn": "2021-03-10",
      "dosageInstruction": [
        {
          "timing": {
            "repeat": {
              "frequency": 1,
              "period": 3.0,
              "periodUnit": "d"
            }
          },
          "asNeededBoolean": false,
          "doseAndRate": [
            {
              "doseQuantity": {
                "value": 1.0,
                "unit": "patch"
              }
            }
          ]
        }
      ],
      "dispenseRequest": {
        "validityPeriod": {
          "start": "2021-03-10",
          "end": "2021-07-10"
        },
        "numberOfRepeatsAllowed": 3,
        "expectedSupplyDuration": {
          "value": 30,
          "unit": "days",
          "system": "http://unitsofmeasure.org",
          "code": "d"
        }
      }
    }
  },
  "prefetch": {
    "item1": {
      "response": {
        "status": "200 OK"
      },
      "resource": {
        "resourceType": "MedicationRequest",
        "id": "example-rec-04-long-acting-opioid-prefetch",
        "status": "active",
        "intent": "order",
        "category": {
          "coding": [
            {
              "system": "http://terminology.hl7.org/CodeSystem/medicationrequest-category",
              "code": "community"
            }
          ]
        },
        "medicationCodeableConcept": {
          "coding": [
            {
              "system": "http://www.nlm.nih.gov/research/umls/rxnorm",
              "code": "1049502",
              "display": "12 HR Oxycodone Hydrochloride 10 MG Extended Release Oral Tablet"
            }
          ]
        },
        "subject": {
          "reference": "Patient/example-rec-04-long-acting-opioid"
        },
        "context": {
          "reference": "Encounter/example-rec-04-long-acting-opioid-prefetch"
        },
        "authoredOn": "2020-11-10",
        "dosageInstruction": [
          {
            "timing": {
              "repeat": {
                "frequency": 1,
                "period": 3.0,
                "periodUnit": "d"
              }
            },
            "asNeededBoolean": false,
            "doseQuantity": {
              "value": 1.0,
              "unit": "patch"
            }
          }
        ],
        "dispenseRequest": {
          "validityPeriod": {
            "start": "2020-11-10",
            "end": "2021-06-10"
          },
          "numberOfRepeatsAllowed": 3,
          "expectedSupplyDuration": {
            "value": 30,
            "unit": "days",
            "system": "http://unitsofmeasure.org",
            "code": "d"
          }
        }
      }
    },
    "item2": {
      "response": {
        "status": "200 OK"
      },
      "resource": {
        "resourceType": "Encounter",
        "id": "example-rec-04-long-acting-opioid-prefetch",
        "status": "finished",
        "subject": {
          "reference": "Patient/example-rec-04-long-acting-opioid"
        },
        "period": {
          "start": "2020-11-10",
          "end": "2020-11-10"
        }
      },
      "item3": {
        "response": {
          "status": "200 OK"
        },
        "resource": {
          "resourceType": "Patient",
          "id": "example-rec-04-long-acting-opioid",
          "gender": "male",
          "birthDate": "1982-01-07"
        }
      },
      "item4": null,
      "item5": null,
      "item6": null,
      "item7": null,
      "item8": null,
      "item9": null,
      "item10": null,
      "item11": null,
      "item12": null,
      "item13": null
    }
  }
}